"","user_id","condition","total_trials","risk","gain","no_effect","experimental_treatment_selected","key_press","rt","ratio","batch","trial_index","risk_c","gain_c","Intercept","Risk_Beta","Gain_Beta","Interaction_Beta","Risk_sig","Gain_sig","Interaction_sig"
"1","01rSsifR","Mood",75,65,30,5,"No to treatment",77,735.810000001919,0.461538461538462,1,"1",19.2,2.6,0.00493508825595089,0.813127953376424,1.11401720116037,0.98847195793575,1,0,0
"2","01rSsifR","Mood",75,25,65,10,"Yes to treatment",90,801.634999999835,2.6,1,"2",-20.8,37.6,0.00493508825595089,0.813127953376424,1.11401720116037,0.98847195793575,1,0,0
"3","01rSsifR","Mood",75,50,15,35,"No to treatment",77,961.880000002566,0.3,1,"3",4.2,-12.4,0.00493508825595089,0.813127953376424,1.11401720116037,0.98847195793575,1,0,0
"4","01rSsifR","Mood",75,80,15,5,"No to treatment",90,722.050000000279,0.1875,1,"4",34.2,-12.4,0.00493508825595089,0.813127953376424,1.11401720116037,0.98847195793575,1,0,0
"5","01rSsifR","Mood",75,85,5,10,"No to treatment",77,640.49999999773,0.0588235294117647,1,"5",39.2,-22.4,0.00493508825595089,0.813127953376424,1.11401720116037,0.98847195793575,1,0,0
"6","01rSsifR","Mood",75,65,5,30,"No to treatment",90,1170.61000000103,0.0769230769230769,1,"6",19.2,-22.4,0.00493508825595089,0.813127953376424,1.11401720116037,0.98847195793575,1,0,0
"7","01rSsifR","Mood",75,45,10,45,"No to treatment",77,722.085000001243,0.222222222222222,1,"7",-0.799999999999997,-17.4,0.00493508825595089,0.813127953376424,1.11401720116037,0.98847195793575,1,0,0
"8","01rSsifR","Mood",75,80,5,15,"No to treatment",77,640.995000001567,0.0625,1,"8",34.2,-22.4,0.00493508825595089,0.813127953376424,1.11401720116037,0.98847195793575,1,0,0
"9","01rSsifR","Mood",75,55,25,20,"No to treatment",77,898.26499999981,0.454545454545455,1,"9",9.2,-2.4,0.00493508825595089,0.813127953376424,1.11401720116037,0.98847195793575,1,0,0
"10","01rSsifR","Mood",75,25,35,40,"Yes to treatment",77,994.064999998896,1.4,1,"10",-20.8,7.6,0.00493508825595089,0.813127953376424,1.11401720116037,0.98847195793575,1,0,0
"11","01rSsifR","Mood",75,80,15,5,"No to treatment",90,969.989999997779,0.1875,1,"11",34.2,-12.4,0.00493508825595089,0.813127953376424,1.11401720116037,0.98847195793575,1,0,0
"12","01rSsifR","Mood",75,85,5,10,"No to treatment",77,601.350000000792,0.0588235294117647,1,"12",39.2,-22.4,0.00493508825595089,0.813127953376424,1.11401720116037,0.98847195793575,1,0,0
"13","01rSsifR","Mood",75,45,35,20,"No to treatment",90,962.08000000118,0.777777777777778,1,"13",-0.799999999999997,7.6,0.00493508825595089,0.813127953376424,1.11401720116037,0.98847195793575,1,0,0
"14","01rSsifR","Mood",75,30,55,15,"Yes to treatment",90,576.320000000123,1.83333333333333,1,"14",-15.8,27.6,0.00493508825595089,0.813127953376424,1.11401720116037,0.98847195793575,1,0,0
"15","01rSsifR","Mood",75,75,5,20,"No to treatment",77,753.154999998515,0.0666666666666667,1,"15",29.2,-22.4,0.00493508825595089,0.813127953376424,1.11401720116037,0.98847195793575,1,0,0
"16","01rSsifR","Mood",75,75,5,20,"No to treatment",90,1058.21500000093,0.0666666666666667,1,"16",29.2,-22.4,0.00493508825595089,0.813127953376424,1.11401720116037,0.98847195793575,1,0,0
"17","01rSsifR","Mood",75,85,5,10,"No to treatment",77,1057.67500000002,0.0588235294117647,1,"17",39.2,-22.4,0.00493508825595089,0.813127953376424,1.11401720116037,0.98847195793575,1,0,0
"18","01rSsifR","Mood",75,45,50,5,"No to treatment",90,3474.27500000049,1.11111111111111,1,"18",-0.799999999999997,22.6,0.00493508825595089,0.813127953376424,1.11401720116037,0.98847195793575,1,0,0
"19","01rSsifR","Mood",75,30,20,50,"No to treatment",90,1009.44999999774,0.666666666666667,1,"19",-15.8,-7.4,0.00493508825595089,0.813127953376424,1.11401720116037,0.98847195793575,1,0,0
"20","01rSsifR","Mood",75,30,40,30,"Yes to treatment",77,1009.8399999988,1.33333333333333,1,"20",-15.8,12.6,0.00493508825595089,0.813127953376424,1.11401720116037,0.98847195793575,1,0,0
"21","01rSsifR","Mood",75,30,55,15,"Yes to treatment",90,1409.40000000046,1.83333333333333,1,"21",-15.8,27.6,0.00493508825595089,0.813127953376424,1.11401720116037,0.98847195793575,1,0,0
"22","01rSsifR","Mood",75,45,20,35,"No to treatment",77,881.844999999885,0.444444444444444,1,"22",-0.799999999999997,-7.4,0.00493508825595089,0.813127953376424,1.11401720116037,0.98847195793575,1,0,0
"23","01rSsifR","Mood",75,10,70,20,"Yes to treatment",77,945.475000000442,7,1,"23",-35.8,42.6,0.00493508825595089,0.813127953376424,1.11401720116037,0.98847195793575,1,0,0
"24","01rSsifR","Mood",75,60,5,35,"No to treatment",77,753.759999999602,0.0833333333333333,1,"24",14.2,-22.4,0.00493508825595089,0.813127953376424,1.11401720116037,0.98847195793575,1,0,0
"25","01rSsifR","Mood",75,35,30,35,"No to treatment",90,946.24499999918,0.857142857142857,1,"25",-10.8,2.6,0.00493508825595089,0.813127953376424,1.11401720116037,0.98847195793575,1,0,0
"26","01rSsifR","Mood",75,80,15,5,"No to treatment",77,657.070000001113,0.1875,1,"26",34.2,-12.4,0.00493508825595089,0.813127953376424,1.11401720116037,0.98847195793575,1,0,0
"27","01rSsifR","Mood",75,40,50,10,"No to treatment",77,1345.57500000298,1.25,1,"27",-5.8,22.6,0.00493508825595089,0.813127953376424,1.11401720116037,0.98847195793575,1,0,0
"28","01rSsifR","Mood",75,35,20,45,"No to treatment",90,1058.10000000201,0.571428571428571,1,"28",-10.8,-7.4,0.00493508825595089,0.813127953376424,1.11401720116037,0.98847195793575,1,0,0
"29","01rSsifR","Mood",75,45,25,30,"No to treatment",90,1505.70000000153,0.555555555555556,1,"29",-0.799999999999997,-2.4,0.00493508825595089,0.813127953376424,1.11401720116037,0.98847195793575,1,0,0
"30","01rSsifR","Mood",75,50,20,30,"No to treatment",90,882.249999998749,0.4,1,"30",4.2,-7.4,0.00493508825595089,0.813127953376424,1.11401720116037,0.98847195793575,1,0,0
"31","01rSsifR","Mood",75,70,5,25,"No to treatment",77,660.195000000414,0.0714285714285714,1,"31",24.2,-22.4,0.00493508825595089,0.813127953376424,1.11401720116037,0.98847195793575,1,0,0
"32","01rSsifR","Mood",75,75,15,10,"No to treatment",77,5320.27000000016,0.2,1,"32",29.2,-12.4,0.00493508825595089,0.813127953376424,1.11401720116037,0.98847195793575,1,0,0
"33","01rSsifR","Mood",75,30,35,35,"Yes to treatment",77,4546.45000000164,1.16666666666667,1,"33",-15.8,7.6,0.00493508825595089,0.813127953376424,1.11401720116037,0.98847195793575,1,0,0
"34","01rSsifR","Mood",75,10,45,45,"Yes to treatment",90,994.17000000173,4.5,1,"34",-35.8,17.6,0.00493508825595089,0.813127953376424,1.11401720116037,0.98847195793575,1,0,0
"35","01rSsifR","Mood",75,20,75,5,"Yes to treatment",77,2176.21999999756,3.75,1,"35",-25.8,47.6,0.00493508825595089,0.813127953376424,1.11401720116037,0.98847195793575,1,0,0
"36","01rSsifR","Mood",75,30,25,45,"No to treatment",77,865.819999999076,0.833333333333333,1,"36",-15.8,-2.4,0.00493508825595089,0.813127953376424,1.11401720116037,0.98847195793575,1,0,0
"37","01rSsifR","Mood",75,75,15,10,"No to treatment",77,976.265000001149,0.2,1,"37",29.2,-12.4,0.00493508825595089,0.813127953376424,1.11401720116037,0.98847195793575,1,0,0
"38","01rSsifR","Mood",75,5,65,30,"Yes to treatment",77,1089.8449999986,13,1,"38",-40.8,37.6,0.00493508825595089,0.813127953376424,1.11401720116037,0.98847195793575,1,0,0
"39","01rSsifR","Mood",75,25,40,35,"Yes to treatment",90,1202.62000000002,1.6,1,"39",-20.8,12.6,0.00493508825595089,0.813127953376424,1.11401720116037,0.98847195793575,1,0,0
"40","01rSsifR","Mood",75,5,65,30,"Yes to treatment",77,929.390000001149,13,1,"40",-40.8,37.6,0.00493508825595089,0.813127953376424,1.11401720116037,0.98847195793575,1,0,0
"41","01rSsifR","Mood",75,80,5,15,"No to treatment",90,594.010000000708,0.0625,1,"41",34.2,-22.4,0.00493508825595089,0.813127953376424,1.11401720116037,0.98847195793575,1,0,0
"42","01rSsifR","Mood",75,15,75,10,"Yes to treatment",77,1009.45999999749,5,1,"42",-30.8,47.6,0.00493508825595089,0.813127953376424,1.11401720116037,0.98847195793575,1,0,0
"43","01rSsifR","Mood",75,30,40,30,"Yes to treatment",77,1393.39499999915,1.33333333333333,1,"43",-15.8,12.6,0.00493508825595089,0.813127953376424,1.11401720116037,0.98847195793575,1,0,0
"44","01rSsifR","Mood",75,35,55,10,"Yes to treatment",77,1041.73499999888,1.57142857142857,1,"44",-10.8,27.6,0.00493508825595089,0.813127953376424,1.11401720116037,0.98847195793575,1,0,0
"45","01rSsifR","Mood",75,5,45,50,"Yes to treatment",90,737.975000000035,9,1,"45",-40.8,17.6,0.00493508825595089,0.813127953376424,1.11401720116037,0.98847195793575,1,0,0
"46","01rSsifR","Mood",75,90,5,5,"No to treatment",77,722.444999999425,0.0555555555555556,1,"46",44.2,-22.4,0.00493508825595089,0.813127953376424,1.11401720116037,0.98847195793575,1,0,0
"47","01rSsifR","Mood",75,20,35,45,"No to treatment",77,5776.44500000315,1.75,1,"47",-25.8,7.6,0.00493508825595089,0.813127953376424,1.11401720116037,0.98847195793575,1,0,0
"48","01rSsifR","Mood",75,70,20,10,"No to treatment",77,673.77999999735,0.285714285714286,1,"48",24.2,-7.4,0.00493508825595089,0.813127953376424,1.11401720116037,0.98847195793575,1,0,0
"49","01rSsifR","Mood",75,25,35,40,"Yes to treatment",90,5473.42000000208,1.4,1,"49",-20.8,7.6,0.00493508825595089,0.813127953376424,1.11401720116037,0.98847195793575,1,0,0
"50","01rSsifR","Mood",75,65,25,10,"No to treatment",77,529.495000002498,0.384615384615385,1,"50",19.2,-2.4,0.00493508825595089,0.813127953376424,1.11401720116037,0.98847195793575,1,0,0
"51","01rSsifR","Mood",75,40,10,50,"No to treatment",77,738.004999999248,0.25,1,"51",-5.8,-17.4,0.00493508825595089,0.813127953376424,1.11401720116037,0.98847195793575,1,0,0
"52","01rSsifR","Mood",75,25,45,30,"Yes to treatment",90,881.884999998903,1.8,1,"52",-20.8,17.6,0.00493508825595089,0.813127953376424,1.11401720116037,0.98847195793575,1,0,0
"53","01rSsifR","Mood",75,65,30,5,"No to treatment",90,994.02000000191,0.461538461538462,1,"53",19.2,2.6,0.00493508825595089,0.813127953376424,1.11401720116037,0.98847195793575,1,0,0
"54","01rSsifR","Mood",75,5,75,20,"Yes to treatment",77,642.015000001295,15,1,"54",-40.8,47.6,0.00493508825595089,0.813127953376424,1.11401720116037,0.98847195793575,1,0,0
"55","01rSsifR","Mood",75,30,20,50,"No to treatment",77,801.445000000967,0.666666666666667,1,"55",-15.8,-7.4,0.00493508825595089,0.813127953376424,1.11401720116037,0.98847195793575,1,0,0
"56","01rSsifR","Mood",75,15,10,75,"No to treatment",90,1393.70500000229,0.666666666666667,1,"56",-30.8,-17.4,0.00493508825595089,0.813127953376424,1.11401720116037,0.98847195793575,1,0,0
"57","01rSsifR","Mood",75,50,35,15,"No to treatment",90,849.764999999024,0.7,1,"57",4.2,7.6,0.00493508825595089,0.813127953376424,1.11401720116037,0.98847195793575,1,0,0
"58","01rSsifR","Mood",75,10,5,85,"No to treatment",90,1602.04500000327,0.5,1,"58",-35.8,-22.4,0.00493508825595089,0.813127953376424,1.11401720116037,0.98847195793575,1,0,0
"59","01rSsifR","Mood",75,80,15,5,"No to treatment",90,833.630000000994,0.1875,1,"59",34.2,-12.4,0.00493508825595089,0.813127953376424,1.11401720116037,0.98847195793575,1,0,0
"60","01rSsifR","Mood",75,25,15,60,"No to treatment",77,944.754999996803,0.6,1,"60",-20.8,-12.4,0.00493508825595089,0.813127953376424,1.11401720116037,0.98847195793575,1,0,0
"61","01rSsifR","Mood",75,75,20,5,"No to treatment",77,945.255000002362,0.266666666666667,1,"61",29.2,-7.4,0.00493508825595089,0.813127953376424,1.11401720116037,0.98847195793575,1,0,0
"62","01rSsifR","Mood",75,40,35,25,"No to treatment",77,2577.82499999666,0.875,1,"62",-5.8,7.6,0.00493508825595089,0.813127953376424,1.11401720116037,0.98847195793575,1,0,0
"63","01rSsifR","Mood",75,35,5,60,"No to treatment",90,850.51999999996,0.142857142857143,1,"63",-10.8,-22.4,0.00493508825595089,0.813127953376424,1.11401720116037,0.98847195793575,1,0,0
"64","01rSsifR","Mood",75,85,5,10,"No to treatment",90,690.744999999879,0.0588235294117647,1,"64",39.2,-22.4,0.00493508825595089,0.813127953376424,1.11401720116037,0.98847195793575,1,0,0
"65","01rSsifR","Mood",75,20,5,75,"No to treatment",77,849.469999997411,0.25,1,"65",-25.8,-22.4,0.00493508825595089,0.813127953376424,1.11401720116037,0.98847195793575,1,0,0
"66","01rSsifR","Mood",75,80,5,15,"No to treatment",90,714.359999998123,0.0625,1,"66",34.2,-22.4,0.00493508825595089,0.813127953376424,1.11401720116037,0.98847195793575,1,0,0
"67","01rSsifR","Mood",75,5,90,5,"Yes to treatment",90,769.834999999148,18,1,"67",-40.8,62.6,0.00493508825595089,0.813127953376424,1.11401720116037,0.98847195793575,1,0,0
"68","01rSsifR","Mood",75,25,15,60,"No to treatment",90,1121.24500000209,0.6,1,"68",-20.8,-12.4,0.00493508825595089,0.813127953376424,1.11401720116037,0.98847195793575,1,0,0
"69","01rSsifR","Mood",75,60,10,30,"No to treatment",90,737.744999998511,0.166666666666667,1,"69",14.2,-17.4,0.00493508825595089,0.813127953376424,1.11401720116037,0.98847195793575,1,0,0
"70","01rSsifR","Mood",75,35,40,25,"Yes to treatment",77,849.040000000969,1.14285714285714,1,"70",-10.8,12.6,0.00493508825595089,0.813127953376424,1.11401720116037,0.98847195793575,1,0,0
"71","01rSsifR","Mood",75,75,20,5,"No to treatment",90,706.154999999853,0.266666666666667,1,"71",29.2,-7.4,0.00493508825595089,0.813127953376424,1.11401720116037,0.98847195793575,1,0,0
"72","01rSsifR","Mood",75,25,15,60,"No to treatment",90,2098.34000000046,0.6,1,"72",-20.8,-12.4,0.00493508825595089,0.813127953376424,1.11401720116037,0.98847195793575,1,0,0
"73","01rSsifR","Mood",75,65,15,20,"No to treatment",90,769.885000001523,0.230769230769231,1,"73",19.2,-12.4,0.00493508825595089,0.813127953376424,1.11401720116037,0.98847195793575,1,0,0
"74","01rSsifR","Mood",75,15,30,55,"Yes to treatment",77,1281.52999999656,2,1,"74",-30.8,2.6,0.00493508825595089,0.813127953376424,1.11401720116037,0.98847195793575,1,0,0
"75","01rSsifR","Mood",75,85,5,10,"No to treatment",77,1080.81500000117,0.0588235294117647,1,"75",39.2,-22.4,0.00493508825595089,0.813127953376424,1.11401720116037,0.98847195793575,1,0,0
"76","19x3QrYn","Language (spoken)",75,65,30,5,"Yes to treatment",77,646.025000140071,0.461538461538462,1,"1",16,2.86666666666667,472.906120077417,1.17205524347866,1.26685669412271,1.00595293247878,1,1,1
"77","19x3QrYn","Language (spoken)",75,70,10,20,"Yes to treatment",77,17765.2549995109,0.142857142857143,1,"2",21,-17.1333333333333,472.906120077417,1.17205524347866,1.26685669412271,1.00595293247878,1,1,1
"78","19x3QrYn","Language (spoken)",75,65,15,20,"Yes to treatment",90,586.544999852777,0.230769230769231,1,"3",16,-12.1333333333333,472.906120077417,1.17205524347866,1.26685669412271,1.00595293247878,1,1,1
"79","19x3QrYn","Language (spoken)",75,10,70,20,"Yes to treatment",77,8342.75499917567,7,1,"4",-39,42.8666666666667,472.906120077417,1.17205524347866,1.26685669412271,1.00595293247878,1,1,1
"80","19x3QrYn","Language (spoken)",75,65,15,20,"Yes to treatment",77,16854.3999996036,0.230769230769231,1,"5",16,-12.1333333333333,472.906120077417,1.17205524347866,1.26685669412271,1.00595293247878,1,1,1
"81","19x3QrYn","Language (spoken)",75,40,25,35,"Yes to treatment",77,957.750000059605,0.625,1,"6",-9,-2.13333333333333,472.906120077417,1.17205524347866,1.26685669412271,1.00595293247878,1,1,1
"82","19x3QrYn","Language (spoken)",75,15,45,40,"Yes to treatment",90,1330.04000037909,3,1,"7",-34,17.8666666666667,472.906120077417,1.17205524347866,1.26685669412271,1.00595293247878,1,1,1
"83","19x3QrYn","Language (spoken)",75,40,55,5,"Yes to treatment",90,614.684999920428,1.375,1,"8",-9,27.8666666666667,472.906120077417,1.17205524347866,1.26685669412271,1.00595293247878,1,1,1
"84","19x3QrYn","Language (spoken)",75,30,15,55,"Yes to treatment",90,649.524999782443,0.5,1,"9",-19,-12.1333333333333,472.906120077417,1.17205524347866,1.26685669412271,1.00595293247878,1,1,1
"85","19x3QrYn","Language (spoken)",75,20,65,15,"Yes to treatment",90,586.63500007242,3.25,1,"10",-29,37.8666666666667,472.906120077417,1.17205524347866,1.26685669412271,1.00595293247878,1,1,1
"86","19x3QrYn","Language (spoken)",75,15,15,70,"No to treatment",77,1978.11000049114,1,1,"11",-34,-12.1333333333333,472.906120077417,1.17205524347866,1.26685669412271,1.00595293247878,1,1,1
"87","19x3QrYn","Language (spoken)",75,20,15,65,"No to treatment",77,337.580000050366,0.75,1,"12",-29,-12.1333333333333,472.906120077417,1.17205524347866,1.26685669412271,1.00595293247878,1,1,1
"88","19x3QrYn","Language (spoken)",75,90,5,5,"Yes to treatment",77,556.175000034273,0.0555555555555556,1,"13",41,-22.1333333333333,472.906120077417,1.17205524347866,1.26685669412271,1.00595293247878,1,1,1
"89","19x3QrYn","Language (spoken)",75,35,10,55,"Yes to treatment",90,674.244999885559,0.285714285714286,1,"14",-14,-17.1333333333333,472.906120077417,1.17205524347866,1.26685669412271,1.00595293247878,1,1,1
"90","19x3QrYn","Language (spoken)",75,80,10,10,"Yes to treatment",77,395.804999396205,0.125,1,"15",31,-17.1333333333333,472.906120077417,1.17205524347866,1.26685669412271,1.00595293247878,1,1,1
"91","19x3QrYn","Language (spoken)",75,25,30,45,"Yes to treatment",77,770.349999889731,1.2,1,"16",-24,2.86666666666667,472.906120077417,1.17205524347866,1.26685669412271,1.00595293247878,1,1,1
"92","19x3QrYn","Language (spoken)",75,75,5,20,"No to treatment",77,3612.22499981523,0.0666666666666667,1,"17",26,-22.1333333333333,472.906120077417,1.17205524347866,1.26685669412271,1.00595293247878,1,1,1
"93","19x3QrYn","Language (spoken)",75,25,30,45,"Yes to treatment",90,712.770000100136,1.2,1,"18",-24,2.86666666666667,472.906120077417,1.17205524347866,1.26685669412271,1.00595293247878,1,1,1
"94","19x3QrYn","Language (spoken)",75,70,5,25,"Yes to treatment",77,577.159999869764,0.0714285714285714,1,"19",21,-22.1333333333333,472.906120077417,1.17205524347866,1.26685669412271,1.00595293247878,1,1,1
"95","19x3QrYn","Language (spoken)",75,40,40,20,"Yes to treatment",77,717.679999768734,1,1,"20",-9,12.8666666666667,472.906120077417,1.17205524347866,1.26685669412271,1.00595293247878,1,1,1
"96","19x3QrYn","Language (spoken)",75,85,10,5,"Yes to treatment",77,869.445000775158,0.117647058823529,1,"21",36,-17.1333333333333,472.906120077417,1.17205524347866,1.26685669412271,1.00595293247878,1,1,1
"97","19x3QrYn","Language (spoken)",75,30,35,35,"Yes to treatment",90,2743.87499969453,1.16666666666667,1,"22",-19,7.86666666666667,472.906120077417,1.17205524347866,1.26685669412271,1.00595293247878,1,1,1
"98","19x3QrYn","Language (spoken)",75,65,25,10,"Yes to treatment",77,417.100000195205,0.384615384615385,1,"23",16,-2.13333333333333,472.906120077417,1.17205524347866,1.26685669412271,1.00595293247878,1,1,1
"99","19x3QrYn","Language (spoken)",75,75,20,5,"Yes to treatment",77,1582.22999982536,0.266666666666667,1,"24",26,-7.13333333333333,472.906120077417,1.17205524347866,1.26685669412271,1.00595293247878,1,1,1
"100","19x3QrYn","Language (spoken)",75,45,35,20,"Yes to treatment",90,576.144999824464,0.777777777777778,1,"25",-4,7.86666666666667,472.906120077417,1.17205524347866,1.26685669412271,1.00595293247878,1,1,1
"101","19x3QrYn","Language (spoken)",75,70,5,25,"Yes to treatment",77,533.950000070035,0.0714285714285714,1,"26",21,-22.1333333333333,472.906120077417,1.17205524347866,1.26685669412271,1.00595293247878,1,1,1
"102","19x3QrYn","Language (spoken)",75,85,5,10,"Yes to treatment",90,12265.000000596,0.0588235294117647,1,"27",36,-22.1333333333333,472.906120077417,1.17205524347866,1.26685669412271,1.00595293247878,1,1,1
"103","19x3QrYn","Language (spoken)",75,40,35,25,"Yes to treatment",90,1203.1199997291,0.875,1,"28",-9,7.86666666666667,472.906120077417,1.17205524347866,1.26685669412271,1.00595293247878,1,1,1
"104","19x3QrYn","Language (spoken)",75,15,55,30,"Yes to treatment",90,1017.45499949902,3.66666666666667,1,"29",-34,27.8666666666667,472.906120077417,1.17205524347866,1.26685669412271,1.00595293247878,1,1,1
"105","19x3QrYn","Language (spoken)",75,30,50,20,"Yes to treatment",77,565.225000493228,1.66666666666667,1,"30",-19,22.8666666666667,472.906120077417,1.17205524347866,1.26685669412271,1.00595293247878,1,1,1
"106","19x3QrYn","Language (spoken)",75,15,65,20,"Yes to treatment",77,459.604999981821,4.33333333333333,1,"31",-34,37.8666666666667,472.906120077417,1.17205524347866,1.26685669412271,1.00595293247878,1,1,1
"107","19x3QrYn","Language (spoken)",75,35,55,10,"Yes to treatment",77,773.18499982357,1.57142857142857,1,"32",-14,27.8666666666667,472.906120077417,1.17205524347866,1.26685669412271,1.00595293247878,1,1,1
"108","19x3QrYn","Language (spoken)",75,90,5,5,"No to treatment",77,5359.54499989748,0.0555555555555556,1,"33",41,-22.1333333333333,472.906120077417,1.17205524347866,1.26685669412271,1.00595293247878,1,1,1
"109","19x3QrYn","Language (spoken)",75,90,5,5,"Yes to treatment",77,544.145000167191,0.0555555555555556,1,"34",41,-22.1333333333333,472.906120077417,1.17205524347866,1.26685669412271,1.00595293247878,1,1,1
"110","19x3QrYn","Language (spoken)",75,55,30,15,"Yes to treatment",90,1600.02000071108,0.545454545454545,1,"35",6,2.86666666666667,472.906120077417,1.17205524347866,1.26685669412271,1.00595293247878,1,1,1
"111","19x3QrYn","Language (spoken)",75,80,15,5,"Yes to treatment",90,1150.26499982923,0.1875,1,"36",31,-12.1333333333333,472.906120077417,1.17205524347866,1.26685669412271,1.00595293247878,1,1,1
"112","19x3QrYn","Language (spoken)",75,45,15,40,"Yes to treatment",77,944.464999251068,0.333333333333333,1,"37",-4,-12.1333333333333,472.906120077417,1.17205524347866,1.26685669412271,1.00595293247878,1,1,1
"113","19x3QrYn","Language (spoken)",75,5,55,40,"No to treatment",90,1865.82500021905,11,1,"38",-44,27.8666666666667,472.906120077417,1.17205524347866,1.26685669412271,1.00595293247878,1,1,1
"114","19x3QrYn","Language (spoken)",75,30,40,30,"Yes to treatment",77,3561.22499983758,1.33333333333333,1,"39",-19,12.8666666666667,472.906120077417,1.17205524347866,1.26685669412271,1.00595293247878,1,1,1
"115","19x3QrYn","Language (spoken)",75,75,15,10,"Yes to treatment",77,591.614999808371,0.2,1,"40",26,-12.1333333333333,472.906120077417,1.17205524347866,1.26685669412271,1.00595293247878,1,1,1
"116","19x3QrYn","Language (spoken)",75,90,5,5,"Yes to treatment",90,619.629999622703,0.0555555555555556,1,"41",41,-22.1333333333333,472.906120077417,1.17205524347866,1.26685669412271,1.00595293247878,1,1,1
"117","19x3QrYn","Language (spoken)",75,75,5,20,"Yes to treatment",77,426.954999566078,0.0666666666666667,1,"42",26,-22.1333333333333,472.906120077417,1.17205524347866,1.26685669412271,1.00595293247878,1,1,1
"118","19x3QrYn","Language (spoken)",75,80,10,10,"Yes to treatment",90,612.634999677539,0.125,1,"43",31,-17.1333333333333,472.906120077417,1.17205524347866,1.26685669412271,1.00595293247878,1,1,1
"119","19x3QrYn","Language (spoken)",75,65,20,15,"Yes to treatment",90,687.040000222623,0.307692307692308,1,"44",16,-7.13333333333333,472.906120077417,1.17205524347866,1.26685669412271,1.00595293247878,1,1,1
"120","19x3QrYn","Language (spoken)",75,80,15,5,"Yes to treatment",90,793.120000511408,0.1875,1,"45",31,-12.1333333333333,472.906120077417,1.17205524347866,1.26685669412271,1.00595293247878,1,1,1
"121","19x3QrYn","Language (spoken)",75,20,55,25,"Yes to treatment",90,728.985000401735,2.75,1,"46",-29,27.8666666666667,472.906120077417,1.17205524347866,1.26685669412271,1.00595293247878,1,1,1
"122","19x3QrYn","Language (spoken)",75,20,50,30,"No to treatment",90,1626.65500026196,2.5,1,"47",-29,22.8666666666667,472.906120077417,1.17205524347866,1.26685669412271,1.00595293247878,1,1,1
"123","19x3QrYn","Language (spoken)",75,65,10,25,"Yes to treatment",77,621.984999626875,0.153846153846154,1,"48",16,-17.1333333333333,472.906120077417,1.17205524347866,1.26685669412271,1.00595293247878,1,1,1
"124","19x3QrYn","Language (spoken)",75,5,80,15,"No to treatment",90,1304.75500039756,16,1,"49",-44,52.8666666666667,472.906120077417,1.17205524347866,1.26685669412271,1.00595293247878,1,1,1
"125","19x3QrYn","Language (spoken)",75,90,5,5,"Yes to treatment",77,485.975000075996,0.0555555555555556,1,"50",41,-22.1333333333333,472.906120077417,1.17205524347866,1.26685669412271,1.00595293247878,1,1,1
"126","19x3QrYn","Language (spoken)",75,10,10,80,"Yes to treatment",77,1022.78999984264,1,1,"51",-39,-17.1333333333333,472.906120077417,1.17205524347866,1.26685669412271,1.00595293247878,1,1,1
"127","19x3QrYn","Language (spoken)",75,50,15,35,"Yes to treatment",77,438.075000420213,0.3,1,"52",1,-12.1333333333333,472.906120077417,1.17205524347866,1.26685669412271,1.00595293247878,1,1,1
"128","19x3QrYn","Language (spoken)",75,15,10,75,"Yes to treatment",77,1076.40499994159,0.666666666666667,1,"53",-34,-17.1333333333333,472.906120077417,1.17205524347866,1.26685669412271,1.00595293247878,1,1,1
"129","19x3QrYn","Language (spoken)",75,15,5,80,"Yes to treatment",90,4028.70999928564,0.333333333333333,1,"54",-34,-22.1333333333333,472.906120077417,1.17205524347866,1.26685669412271,1.00595293247878,1,1,1
"130","19x3QrYn","Language (spoken)",75,70,25,5,"Yes to treatment",77,727.869999594986,0.357142857142857,1,"55",21,-2.13333333333333,472.906120077417,1.17205524347866,1.26685669412271,1.00595293247878,1,1,1
"131","19x3QrYn","Language (spoken)",75,55,30,15,"Yes to treatment",77,689.105000346899,0.545454545454545,1,"56",6,2.86666666666667,472.906120077417,1.17205524347866,1.26685669412271,1.00595293247878,1,1,1
"132","19x3QrYn","Language (spoken)",75,85,5,10,"Yes to treatment",77,513.775000348687,0.0588235294117647,1,"57",36,-22.1333333333333,472.906120077417,1.17205524347866,1.26685669412271,1.00595293247878,1,1,1
"133","19x3QrYn","Language (spoken)",75,10,85,5,"Yes to treatment",90,5224.9750001356,8.5,1,"58",-39,57.8666666666667,472.906120077417,1.17205524347866,1.26685669412271,1.00595293247878,1,1,1
"134","19x3QrYn","Language (spoken)",75,20,15,65,"No to treatment",77,738.274999894202,0.75,1,"59",-29,-12.1333333333333,472.906120077417,1.17205524347866,1.26685669412271,1.00595293247878,1,1,1
"135","19x3QrYn","Language (spoken)",75,20,75,5,"Yes to treatment",77,485.43499968946,3.75,1,"60",-29,47.8666666666667,472.906120077417,1.17205524347866,1.26685669412271,1.00595293247878,1,1,1
"136","19x3QrYn","Language (spoken)",75,50,30,20,"Yes to treatment",90,490.880000405014,0.6,1,"61",1,2.86666666666667,472.906120077417,1.17205524347866,1.26685669412271,1.00595293247878,1,1,1
"137","19x3QrYn","Language (spoken)",75,75,20,5,"Yes to treatment",77,4312.14500032365,0.266666666666667,1,"62",26,-7.13333333333333,472.906120077417,1.17205524347866,1.26685669412271,1.00595293247878,1,1,1
"138","19x3QrYn","Language (spoken)",75,80,10,10,"Yes to treatment",77,1521.02999947965,0.125,1,"63",31,-17.1333333333333,472.906120077417,1.17205524347866,1.26685669412271,1.00595293247878,1,1,1
"139","19x3QrYn","Language (spoken)",75,30,55,15,"Yes to treatment",77,397.330000065267,1.83333333333333,1,"64",-19,27.8666666666667,472.906120077417,1.17205524347866,1.26685669412271,1.00595293247878,1,1,1
"140","19x3QrYn","Language (spoken)",75,85,10,5,"Yes to treatment",77,1036.0300000757,0.117647058823529,1,"65",36,-17.1333333333333,472.906120077417,1.17205524347866,1.26685669412271,1.00595293247878,1,1,1
"141","19x3QrYn","Language (spoken)",75,10,50,40,"No to treatment",90,2919.57999952137,5,1,"66",-39,22.8666666666667,472.906120077417,1.17205524347866,1.26685669412271,1.00595293247878,1,1,1
"142","19x3QrYn","Language (spoken)",75,50,45,5,"Yes to treatment",90,709.950000047684,0.9,1,"67",1,17.8666666666667,472.906120077417,1.17205524347866,1.26685669412271,1.00595293247878,1,1,1
"143","19x3QrYn","Language (spoken)",75,15,65,20,"Yes to treatment",90,630.399999208748,4.33333333333333,1,"68",-34,37.8666666666667,472.906120077417,1.17205524347866,1.26685669412271,1.00595293247878,1,1,1
"144","19x3QrYn","Language (spoken)",75,80,10,10,"Yes to treatment",77,458.525000140071,0.125,1,"69",31,-17.1333333333333,472.906120077417,1.17205524347866,1.26685669412271,1.00595293247878,1,1,1
"145","19x3QrYn","Language (spoken)",75,80,5,15,"Yes to treatment",77,528.254999779165,0.0625,1,"70",31,-22.1333333333333,472.906120077417,1.17205524347866,1.26685669412271,1.00595293247878,1,1,1
"146","19x3QrYn","Language (spoken)",75,40,5,55,"Yes to treatment",77,552.420000545681,0.125,1,"71",-9,-22.1333333333333,472.906120077417,1.17205524347866,1.26685669412271,1.00595293247878,1,1,1
"147","19x3QrYn","Language (spoken)",75,45,45,10,"Yes to treatment",90,751.004999503493,1,1,"72",-4,17.8666666666667,472.906120077417,1.17205524347866,1.26685669412271,1.00595293247878,1,1,1
"148","19x3QrYn","Language (spoken)",75,5,45,50,"No to treatment",90,1332.24499970675,9,1,"73",-44,17.8666666666667,472.906120077417,1.17205524347866,1.26685669412271,1.00595293247878,1,1,1
"149","19x3QrYn","Language (spoken)",75,85,10,5,"Yes to treatment",77,415.520000271499,0.117647058823529,1,"74",36,-17.1333333333333,472.906120077417,1.17205524347866,1.26685669412271,1.00595293247878,1,1,1
"150","19x3QrYn","Language (spoken)",75,50,15,35,"Yes to treatment",77,586.240000091493,0.3,1,"75",1,-12.1333333333333,472.906120077417,1.17205524347866,1.26685669412271,1.00595293247878,1,1,1
"151","2OsQQK3Z","Short Term (Working) Memory",75,70,25,5,"No to treatment",77,1948.72500002384,0.357142857142857,1,"1",21.0666666666667,0.800000000000001,2.38467938223759,1.02766321965811,1.21395336165259,1.00394883940822,0,1,1
"152","2OsQQK3Z","Short Term (Working) Memory",75,65,10,25,"No to treatment",90,1508.95499996841,0.153846153846154,1,"2",16.0666666666667,-14.2,2.38467938223759,1.02766321965811,1.21395336165259,1.00394883940822,0,1,1
"153","2OsQQK3Z","Short Term (Working) Memory",75,45,15,40,"No to treatment",90,2011.59500004724,0.333333333333333,1,"3",-3.93333333333333,-9.2,2.38467938223759,1.02766321965811,1.21395336165259,1.00394883940822,0,1,1
"154","2OsQQK3Z","Short Term (Working) Memory",75,60,5,35,"No to treatment",90,1203.37500004098,0.0833333333333333,1,"4",11.0666666666667,-19.2,2.38467938223759,1.02766321965811,1.21395336165259,1.00394883940822,0,1,1
"155","2OsQQK3Z","Short Term (Working) Memory",75,75,10,15,"Yes to treatment",77,4148.44999997877,0.133333333333333,1,"5",26.0666666666667,-14.2,2.38467938223759,1.02766321965811,1.21395336165259,1.00394883940822,0,1,1
"156","2OsQQK3Z","Short Term (Working) Memory",75,60,5,35,"No to treatment",90,835.515000158921,0.0833333333333333,1,"6",11.0666666666667,-19.2,2.38467938223759,1.02766321965811,1.21395336165259,1.00394883940822,0,1,1
"157","2OsQQK3Z","Short Term (Working) Memory",75,85,5,10,"No to treatment",90,820.104999933392,0.0588235294117647,1,"7",36.0666666666667,-19.2,2.38467938223759,1.02766321965811,1.21395336165259,1.00394883940822,0,1,1
"158","2OsQQK3Z","Short Term (Working) Memory",75,55,20,25,"Yes to treatment",77,1315.93000004068,0.363636363636364,1,"8",6.06666666666667,-4.2,2.38467938223759,1.02766321965811,1.21395336165259,1.00394883940822,0,1,1
"159","2OsQQK3Z","Short Term (Working) Memory",75,50,45,5,"Yes to treatment",77,1133.42999992892,0.9,1,"9",1.06666666666667,20.8,2.38467938223759,1.02766321965811,1.21395336165259,1.00394883940822,0,1,1
"160","2OsQQK3Z","Short Term (Working) Memory",75,10,5,85,"No to treatment",90,780.595000134781,0.5,1,"10",-38.9333333333333,-19.2,2.38467938223759,1.02766321965811,1.21395336165259,1.00394883940822,0,1,1
"161","2OsQQK3Z","Short Term (Working) Memory",75,55,35,10,"Yes to treatment",77,813.044999958947,0.636363636363636,1,"11",6.06666666666667,10.8,2.38467938223759,1.02766321965811,1.21395336165259,1.00394883940822,0,1,1
"162","2OsQQK3Z","Short Term (Working) Memory",75,40,25,35,"No to treatment",77,1188.00999992527,0.625,1,"12",-8.93333333333333,0.800000000000001,2.38467938223759,1.02766321965811,1.21395336165259,1.00394883940822,0,1,1
"163","2OsQQK3Z","Short Term (Working) Memory",75,20,40,40,"Yes to treatment",90,1195.49500010908,2,1,"13",-28.9333333333333,15.8,2.38467938223759,1.02766321965811,1.21395336165259,1.00394883940822,0,1,1
"164","2OsQQK3Z","Short Term (Working) Memory",75,60,15,25,"No to treatment",77,1220.18499998376,0.25,1,"14",11.0666666666667,-9.2,2.38467938223759,1.02766321965811,1.21395336165259,1.00394883940822,0,1,1
"165","2OsQQK3Z","Short Term (Working) Memory",75,55,35,10,"Yes to treatment",77,1244.32000005618,0.636363636363636,1,"15",6.06666666666667,10.8,2.38467938223759,1.02766321965811,1.21395336165259,1.00394883940822,0,1,1
"166","2OsQQK3Z","Short Term (Working) Memory",75,40,5,55,"No to treatment",90,4492.67500010319,0.125,1,"16",-8.93333333333333,-19.2,2.38467938223759,1.02766321965811,1.21395336165259,1.00394883940822,0,1,1
"167","2OsQQK3Z","Short Term (Working) Memory",75,25,55,20,"Yes to treatment",90,1220.52500001155,2.2,1,"17",-23.9333333333333,30.8,2.38467938223759,1.02766321965811,1.21395336165259,1.00394883940822,0,1,1
"168","2OsQQK3Z","Short Term (Working) Memory",75,5,15,80,"No to treatment",90,1140.54999989457,3,1,"18",-43.9333333333333,-9.2,2.38467938223759,1.02766321965811,1.21395336165259,1.00394883940822,0,1,1
"169","2OsQQK3Z","Short Term (Working) Memory",75,10,70,20,"Yes to treatment",90,1132.31999985874,7,1,"19",-38.9333333333333,45.8,2.38467938223759,1.02766321965811,1.21395336165259,1.00394883940822,0,1,1
"170","2OsQQK3Z","Short Term (Working) Memory",75,10,75,15,"No to treatment",77,1245.27999991551,7.5,1,"20",-38.9333333333333,50.8,2.38467938223759,1.02766321965811,1.21395336165259,1.00394883940822,0,1,1
"171","2OsQQK3Z","Short Term (Working) Memory",75,35,30,35,"Yes to treatment",77,1300.36500003189,0.857142857142857,1,"21",-13.9333333333333,5.8,2.38467938223759,1.02766321965811,1.21395336165259,1.00394883940822,0,1,1
"172","2OsQQK3Z","Short Term (Working) Memory",75,15,50,35,"Yes to treatment",90,1252.39499984309,3.33333333333333,1,"22",-33.9333333333333,25.8,2.38467938223759,1.02766321965811,1.21395336165259,1.00394883940822,0,1,1
"173","2OsQQK3Z","Short Term (Working) Memory",75,40,55,5,"Yes to treatment",77,1402.69500017166,1.375,1,"23",-8.93333333333333,30.8,2.38467938223759,1.02766321965811,1.21395336165259,1.00394883940822,0,1,1
"174","2OsQQK3Z","Short Term (Working) Memory",75,25,10,65,"No to treatment",90,3955.83999995142,0.4,1,"24",-23.9333333333333,-14.2,2.38467938223759,1.02766321965811,1.21395336165259,1.00394883940822,0,1,1
"175","2OsQQK3Z","Short Term (Working) Memory",75,80,10,10,"No to treatment",90,764.649999793619,0.125,1,"25",31.0666666666667,-14.2,2.38467938223759,1.02766321965811,1.21395336165259,1.00394883940822,0,1,1
"176","2OsQQK3Z","Short Term (Working) Memory",75,70,10,20,"No to treatment",77,4980.16000003554,0.142857142857143,1,"26",21.0666666666667,-14.2,2.38467938223759,1.02766321965811,1.21395336165259,1.00394883940822,0,1,1
"177","2OsQQK3Z","Short Term (Working) Memory",75,15,15,70,"No to treatment",90,2012.50000018626,1,1,"27",-33.9333333333333,-9.2,2.38467938223759,1.02766321965811,1.21395336165259,1.00394883940822,0,1,1
"178","2OsQQK3Z","Short Term (Working) Memory",75,25,30,45,"Yes to treatment",77,1076.33999991231,1.2,1,"28",-23.9333333333333,5.8,2.38467938223759,1.02766321965811,1.21395336165259,1.00394883940822,0,1,1
"179","2OsQQK3Z","Short Term (Working) Memory",75,85,5,10,"No to treatment",77,2020.72999998927,0.0588235294117647,1,"29",36.0666666666667,-19.2,2.38467938223759,1.02766321965811,1.21395336165259,1.00394883940822,0,1,1
"180","2OsQQK3Z","Short Term (Working) Memory",75,50,15,35,"No to treatment",90,4795.71500001475,0.3,1,"30",1.06666666666667,-9.2,2.38467938223759,1.02766321965811,1.21395336165259,1.00394883940822,0,1,1
"181","2OsQQK3Z","Short Term (Working) Memory",75,75,10,15,"Yes to treatment",77,1860.70499988273,0.133333333333333,1,"31",26.0666666666667,-14.2,2.38467938223759,1.02766321965811,1.21395336165259,1.00394883940822,0,1,1
"182","2OsQQK3Z","Short Term (Working) Memory",75,80,10,10,"No to treatment",77,1548.75500011258,0.125,1,"32",31.0666666666667,-14.2,2.38467938223759,1.02766321965811,1.21395336165259,1.00394883940822,0,1,1
"183","2OsQQK3Z","Short Term (Working) Memory",75,85,5,10,"No to treatment",77,684.549999888986,0.0588235294117647,1,"33",36.0666666666667,-19.2,2.38467938223759,1.02766321965811,1.21395336165259,1.00394883940822,0,1,1
"184","2OsQQK3Z","Short Term (Working) Memory",75,40,40,20,"Yes to treatment",90,1917.01500001363,1,1,"34",-8.93333333333333,15.8,2.38467938223759,1.02766321965811,1.21395336165259,1.00394883940822,0,1,1
"185","2OsQQK3Z","Short Term (Working) Memory",75,45,35,20,"Yes to treatment",77,1251.43499998376,0.777777777777778,1,"35",-3.93333333333333,10.8,2.38467938223759,1.02766321965811,1.21395336165259,1.00394883940822,0,1,1
"186","2OsQQK3Z","Short Term (Working) Memory",75,50,5,45,"No to treatment",90,5763.62999994308,0.1,1,"36",1.06666666666667,-19.2,2.38467938223759,1.02766321965811,1.21395336165259,1.00394883940822,0,1,1
"187","2OsQQK3Z","Short Term (Working) Memory",75,50,30,20,"Yes to treatment",90,2939.54499997199,0.6,1,"37",1.06666666666667,5.8,2.38467938223759,1.02766321965811,1.21395336165259,1.00394883940822,0,1,1
"188","2OsQQK3Z","Short Term (Working) Memory",75,75,15,10,"No to treatment",77,988.565000006929,0.2,1,"38",26.0666666666667,-9.2,2.38467938223759,1.02766321965811,1.21395336165259,1.00394883940822,0,1,1
"189","2OsQQK3Z","Short Term (Working) Memory",75,90,5,5,"No to treatment",90,596.424999879673,0.0555555555555556,1,"39",41.0666666666667,-19.2,2.38467938223759,1.02766321965811,1.21395336165259,1.00394883940822,0,1,1
"190","2OsQQK3Z","Short Term (Working) Memory",75,40,10,50,"No to treatment",90,1451.58000010997,0.25,1,"40",-8.93333333333333,-14.2,2.38467938223759,1.02766321965811,1.21395336165259,1.00394883940822,0,1,1
"191","2OsQQK3Z","Short Term (Working) Memory",75,60,35,5,"Yes to treatment",77,1692.04499991611,0.583333333333333,1,"41",11.0666666666667,10.8,2.38467938223759,1.02766321965811,1.21395336165259,1.00394883940822,0,1,1
"192","2OsQQK3Z","Short Term (Working) Memory",75,25,30,45,"Yes to treatment",77,1124.21000003815,1.2,1,"42",-23.9333333333333,5.8,2.38467938223759,1.02766321965811,1.21395336165259,1.00394883940822,0,1,1
"193","2OsQQK3Z","Short Term (Working) Memory",75,40,40,20,"Yes to treatment",90,1595.99000005983,1,1,"43",-8.93333333333333,15.8,2.38467938223759,1.02766321965811,1.21395336165259,1.00394883940822,0,1,1
"194","2OsQQK3Z","Short Term (Working) Memory",75,15,10,75,"No to treatment",90,907.170000020415,0.666666666666667,1,"44",-33.9333333333333,-14.2,2.38467938223759,1.02766321965811,1.21395336165259,1.00394883940822,0,1,1
"195","2OsQQK3Z","Short Term (Working) Memory",75,90,5,5,"No to treatment",90,844.234999967739,0.0555555555555556,1,"45",41.0666666666667,-19.2,2.38467938223759,1.02766321965811,1.21395336165259,1.00394883940822,0,1,1
"196","2OsQQK3Z","Short Term (Working) Memory",75,80,5,15,"No to treatment",90,1461.26000001095,0.0625,1,"46",31.0666666666667,-19.2,2.38467938223759,1.02766321965811,1.21395336165259,1.00394883940822,0,1,1
"197","2OsQQK3Z","Short Term (Working) Memory",75,20,50,30,"Yes to treatment",77,1042.42499987595,2.5,1,"47",-28.9333333333333,25.8,2.38467938223759,1.02766321965811,1.21395336165259,1.00394883940822,0,1,1
"198","2OsQQK3Z","Short Term (Working) Memory",75,50,35,15,"Yes to treatment",77,2428.96499997005,0.7,1,"48",1.06666666666667,10.8,2.38467938223759,1.02766321965811,1.21395336165259,1.00394883940822,0,1,1
"199","2OsQQK3Z","Short Term (Working) Memory",75,50,45,5,"Yes to treatment",90,1443.82499996573,0.9,1,"49",1.06666666666667,20.8,2.38467938223759,1.02766321965811,1.21395336165259,1.00394883940822,0,1,1
"200","2OsQQK3Z","Short Term (Working) Memory",75,60,15,25,"No to treatment",90,1004.2750001885,0.25,1,"50",11.0666666666667,-9.2,2.38467938223759,1.02766321965811,1.21395336165259,1.00394883940822,0,1,1
"201","2OsQQK3Z","Short Term (Working) Memory",75,80,15,5,"No to treatment",77,1539.57500006072,0.1875,1,"51",31.0666666666667,-9.2,2.38467938223759,1.02766321965811,1.21395336165259,1.00394883940822,0,1,1
"202","2OsQQK3Z","Short Term (Working) Memory",75,35,30,35,"Yes to treatment",77,1564.51499997638,0.857142857142857,1,"52",-13.9333333333333,5.8,2.38467938223759,1.02766321965811,1.21395336165259,1.00394883940822,0,1,1
"203","2OsQQK3Z","Short Term (Working) Memory",75,40,30,30,"Yes to treatment",77,1484.58000016399,0.75,1,"53",-8.93333333333333,5.8,2.38467938223759,1.02766321965811,1.21395336165259,1.00394883940822,0,1,1
"204","2OsQQK3Z","Short Term (Working) Memory",75,55,15,30,"Yes to treatment",77,1786.65999998339,0.272727272727273,1,"54",6.06666666666667,-9.2,2.38467938223759,1.02766321965811,1.21395336165259,1.00394883940822,0,1,1
"205","2OsQQK3Z","Short Term (Working) Memory",75,10,40,50,"Yes to treatment",90,2748.01500001922,4,1,"55",-38.9333333333333,15.8,2.38467938223759,1.02766321965811,1.21395336165259,1.00394883940822,0,1,1
"206","2OsQQK3Z","Short Term (Working) Memory",75,20,50,30,"Yes to treatment",77,979.594999924302,2.5,1,"56",-28.9333333333333,25.8,2.38467938223759,1.02766321965811,1.21395336165259,1.00394883940822,0,1,1
"207","2OsQQK3Z","Short Term (Working) Memory",75,90,5,5,"No to treatment",90,708.129999926314,0.0555555555555556,1,"57",41.0666666666667,-19.2,2.38467938223759,1.02766321965811,1.21395336165259,1.00394883940822,0,1,1
"208","2OsQQK3Z","Short Term (Working) Memory",75,10,40,50,"Yes to treatment",90,1323.96499998868,4,1,"58",-38.9333333333333,15.8,2.38467938223759,1.02766321965811,1.21395336165259,1.00394883940822,0,1,1
"209","2OsQQK3Z","Short Term (Working) Memory",75,85,10,5,"No to treatment",90,1043.99499995634,0.117647058823529,1,"59",36.0666666666667,-14.2,2.38467938223759,1.02766321965811,1.21395336165259,1.00394883940822,0,1,1
"210","2OsQQK3Z","Short Term (Working) Memory",75,35,20,45,"No to treatment",90,1788.18499995396,0.571428571428571,1,"60",-13.9333333333333,-4.2,2.38467938223759,1.02766321965811,1.21395336165259,1.00394883940822,0,1,1
"211","2OsQQK3Z","Short Term (Working) Memory",75,55,35,10,"Yes to treatment",77,2612.65500006266,0.636363636363636,1,"61",6.06666666666667,10.8,2.38467938223759,1.02766321965811,1.21395336165259,1.00394883940822,0,1,1
"212","2OsQQK3Z","Short Term (Working) Memory",75,85,5,10,"No to treatment",90,684.654999990016,0.0588235294117647,1,"62",36.0666666666667,-19.2,2.38467938223759,1.02766321965811,1.21395336165259,1.00394883940822,0,1,1
"213","2OsQQK3Z","Short Term (Working) Memory",75,80,5,15,"No to treatment",77,1074.74000006914,0.0625,1,"63",31.0666666666667,-19.2,2.38467938223759,1.02766321965811,1.21395336165259,1.00394883940822,0,1,1
"214","2OsQQK3Z","Short Term (Working) Memory",75,75,10,15,"No to treatment",77,1340.02000000328,0.133333333333333,1,"64",26.0666666666667,-14.2,2.38467938223759,1.02766321965811,1.21395336165259,1.00394883940822,0,1,1
"215","2OsQQK3Z","Short Term (Working) Memory",75,5,60,35,"Yes to treatment",90,771.929999813437,12,1,"65",-43.9333333333333,35.8,2.38467938223759,1.02766321965811,1.21395336165259,1.00394883940822,0,1,1
"216","2OsQQK3Z","Short Term (Working) Memory",75,50,35,15,"Yes to treatment",77,1108.09500003234,0.7,1,"66",1.06666666666667,10.8,2.38467938223759,1.02766321965811,1.21395336165259,1.00394883940822,0,1,1
"217","2OsQQK3Z","Short Term (Working) Memory",75,90,5,5,"No to treatment",90,1827.68500014208,0.0555555555555556,1,"67",41.0666666666667,-19.2,2.38467938223759,1.02766321965811,1.21395336165259,1.00394883940822,0,1,1
"218","2OsQQK3Z","Short Term (Working) Memory",75,65,15,20,"No to treatment",90,963.725000154227,0.230769230769231,1,"68",16.0666666666667,-9.2,2.38467938223759,1.02766321965811,1.21395336165259,1.00394883940822,0,1,1
"219","2OsQQK3Z","Short Term (Working) Memory",75,65,5,30,"No to treatment",77,635.615000035614,0.0769230769230769,1,"69",16.0666666666667,-19.2,2.38467938223759,1.02766321965811,1.21395336165259,1.00394883940822,0,1,1
"220","2OsQQK3Z","Short Term (Working) Memory",75,30,35,35,"Yes to treatment",90,1332.09499996156,1.16666666666667,1,"70",-18.9333333333333,10.8,2.38467938223759,1.02766321965811,1.21395336165259,1.00394883940822,0,1,1
"221","2OsQQK3Z","Short Term (Working) Memory",75,15,10,75,"Yes to treatment",90,2739.88500004634,0.666666666666667,1,"71",-33.9333333333333,-14.2,2.38467938223759,1.02766321965811,1.21395336165259,1.00394883940822,0,1,1
"222","2OsQQK3Z","Short Term (Working) Memory",75,10,65,25,"No to treatment",77,3018.87500006706,6.5,1,"72",-38.9333333333333,40.8,2.38467938223759,1.02766321965811,1.21395336165259,1.00394883940822,0,1,1
"223","2OsQQK3Z","Short Term (Working) Memory",75,10,50,40,"Yes to treatment",77,1788.05499989539,5,1,"73",-38.9333333333333,25.8,2.38467938223759,1.02766321965811,1.21395336165259,1.00394883940822,0,1,1
"224","2OsQQK3Z","Short Term (Working) Memory",75,55,40,5,"Yes to treatment",90,1412.17499994673,0.727272727272727,1,"74",6.06666666666667,15.8,2.38467938223759,1.02766321965811,1.21395336165259,1.00394883940822,0,1,1
"225","2OsQQK3Z","Short Term (Working) Memory",75,65,5,30,"No to treatment",77,1780.55000002496,0.0769230769230769,1,"75",16.0666666666667,-19.2,2.38467938223759,1.02766321965811,1.21395336165259,1.00394883940822,0,1,1
"226","2X1xhDjv","Self-control",75,65,25,10,"No to treatment",90,1392,0.384615384615385,1,"1",18.6,-4.2,6.86354585066508e-07,0.537993292930582,0.717949307354621,0.973779881033784,0,0,0
"227","2X1xhDjv","Self-control",75,80,15,5,"No to treatment",90,1190,0.1875,1,"2",33.6,-14.2,6.86354585066508e-07,0.537993292930582,0.717949307354621,0.973779881033784,0,0,0
"228","2X1xhDjv","Self-control",75,5,85,10,"Yes to treatment",77,1909,17,1,"3",-41.4,55.8,6.86354585066508e-07,0.537993292930582,0.717949307354621,0.973779881033784,0,0,0
"229","2X1xhDjv","Self-control",75,45,10,45,"No to treatment",77,2088,0.222222222222222,1,"4",-1.4,-19.2,6.86354585066508e-07,0.537993292930582,0.717949307354621,0.973779881033784,0,0,0
"230","2X1xhDjv","Self-control",75,90,5,5,"No to treatment",77,3426,0.0555555555555556,1,"5",43.6,-24.2,6.86354585066508e-07,0.537993292930582,0.717949307354621,0.973779881033784,0,0,0
"231","2X1xhDjv","Self-control",75,5,55,40,"Yes to treatment",77,1389,11,1,"6",-41.4,25.8,6.86354585066508e-07,0.537993292930582,0.717949307354621,0.973779881033784,0,0,0
"232","2X1xhDjv","Self-control",75,55,35,10,"No to treatment",77,880,0.636363636363636,1,"7",8.6,5.8,6.86354585066508e-07,0.537993292930582,0.717949307354621,0.973779881033784,0,0,0
"233","2X1xhDjv","Self-control",75,20,20,60,"Yes to treatment",77,4193,1,1,"8",-26.4,-9.2,6.86354585066508e-07,0.537993292930582,0.717949307354621,0.973779881033784,0,0,0
"234","2X1xhDjv","Self-control",75,75,5,20,"No to treatment",77,1151,0.0666666666666667,1,"9",28.6,-24.2,6.86354585066508e-07,0.537993292930582,0.717949307354621,0.973779881033784,0,0,0
"235","2X1xhDjv","Self-control",75,40,50,10,"No to treatment",90,1263,1.25,1,"10",-6.4,20.8,6.86354585066508e-07,0.537993292930582,0.717949307354621,0.973779881033784,0,0,0
"236","2X1xhDjv","Self-control",75,60,30,10,"No to treatment",90,1167,0.5,1,"11",13.6,0.800000000000001,6.86354585066508e-07,0.537993292930582,0.717949307354621,0.973779881033784,0,0,0
"237","2X1xhDjv","Self-control",75,15,5,80,"No to treatment",77,2980,0.333333333333333,1,"12",-31.4,-24.2,6.86354585066508e-07,0.537993292930582,0.717949307354621,0.973779881033784,0,0,0
"238","2X1xhDjv","Self-control",75,40,10,50,"No to treatment",90,855,0.25,1,"13",-6.4,-19.2,6.86354585066508e-07,0.537993292930582,0.717949307354621,0.973779881033784,0,0,0
"239","2X1xhDjv","Self-control",75,75,15,10,"No to treatment",90,891,0.2,1,"14",28.6,-14.2,6.86354585066508e-07,0.537993292930582,0.717949307354621,0.973779881033784,0,0,0
"240","2X1xhDjv","Self-control",75,45,25,30,"No to treatment",90,2629,0.555555555555556,1,"15",-1.4,-4.2,6.86354585066508e-07,0.537993292930582,0.717949307354621,0.973779881033784,0,0,0
"241","2X1xhDjv","Self-control",75,15,60,25,"Yes to treatment",90,963,4,1,"16",-31.4,30.8,6.86354585066508e-07,0.537993292930582,0.717949307354621,0.973779881033784,0,0,0
"242","2X1xhDjv","Self-control",75,60,25,15,"No to treatment",77,1166,0.416666666666667,1,"17",13.6,-4.2,6.86354585066508e-07,0.537993292930582,0.717949307354621,0.973779881033784,0,0,0
"243","2X1xhDjv","Self-control",75,85,5,10,"No to treatment",90,973,0.0588235294117647,1,"18",38.6,-24.2,6.86354585066508e-07,0.537993292930582,0.717949307354621,0.973779881033784,0,0,0
"244","2X1xhDjv","Self-control",75,15,20,65,"No to treatment",77,1606,1.33333333333333,1,"19",-31.4,-9.2,6.86354585066508e-07,0.537993292930582,0.717949307354621,0.973779881033784,0,0,0
"245","2X1xhDjv","Self-control",75,35,50,15,"No to treatment",77,1377,1.42857142857143,1,"20",-11.4,20.8,6.86354585066508e-07,0.537993292930582,0.717949307354621,0.973779881033784,0,0,0
"246","2X1xhDjv","Self-control",75,80,15,5,"No to treatment",90,1696,0.1875,1,"21",33.6,-14.2,6.86354585066508e-07,0.537993292930582,0.717949307354621,0.973779881033784,0,0,0
"247","2X1xhDjv","Self-control",75,25,25,50,"No to treatment",90,1693,1,1,"22",-21.4,-4.2,6.86354585066508e-07,0.537993292930582,0.717949307354621,0.973779881033784,0,0,0
"248","2X1xhDjv","Self-control",75,25,35,40,"Yes to treatment",90,2490,1.4,1,"23",-21.4,5.8,6.86354585066508e-07,0.537993292930582,0.717949307354621,0.973779881033784,0,0,0
"249","2X1xhDjv","Self-control",75,85,10,5,"No to treatment",77,1199,0.117647058823529,1,"24",38.6,-19.2,6.86354585066508e-07,0.537993292930582,0.717949307354621,0.973779881033784,0,0,0
"250","2X1xhDjv","Self-control",75,25,65,10,"Yes to treatment",90,1735,2.6,1,"25",-21.4,35.8,6.86354585066508e-07,0.537993292930582,0.717949307354621,0.973779881033784,0,0,0
"251","2X1xhDjv","Self-control",75,20,5,75,"No to treatment",90,1422,0.25,1,"26",-26.4,-24.2,6.86354585066508e-07,0.537993292930582,0.717949307354621,0.973779881033784,0,0,0
"252","2X1xhDjv","Self-control",75,25,50,25,"Yes to treatment",90,2341,2,1,"27",-21.4,20.8,6.86354585066508e-07,0.537993292930582,0.717949307354621,0.973779881033784,0,0,0
"253","2X1xhDjv","Self-control",75,65,25,10,"No to treatment",90,2146,0.384615384615385,1,"28",18.6,-4.2,6.86354585066508e-07,0.537993292930582,0.717949307354621,0.973779881033784,0,0,0
"254","2X1xhDjv","Self-control",75,20,65,15,"Yes to treatment",90,1612,3.25,1,"29",-26.4,35.8,6.86354585066508e-07,0.537993292930582,0.717949307354621,0.973779881033784,0,0,0
"255","2X1xhDjv","Self-control",75,20,65,15,"Yes to treatment",90,1880,3.25,1,"30",-26.4,35.8,6.86354585066508e-07,0.537993292930582,0.717949307354621,0.973779881033784,0,0,0
"256","2X1xhDjv","Self-control",75,15,80,5,"Yes to treatment",77,1571,5.33333333333333,1,"31",-31.4,50.8,6.86354585066508e-07,0.537993292930582,0.717949307354621,0.973779881033784,0,0,0
"257","2X1xhDjv","Self-control",75,45,25,30,"No to treatment",77,2109,0.555555555555556,1,"32",-1.4,-4.2,6.86354585066508e-07,0.537993292930582,0.717949307354621,0.973779881033784,0,0,0
"258","2X1xhDjv","Self-control",75,65,5,30,"No to treatment",90,965,0.0769230769230769,1,"33",18.6,-24.2,6.86354585066508e-07,0.537993292930582,0.717949307354621,0.973779881033784,0,0,0
"259","2X1xhDjv","Self-control",75,45,20,35,"No to treatment",90,1504,0.444444444444444,1,"34",-1.4,-9.2,6.86354585066508e-07,0.537993292930582,0.717949307354621,0.973779881033784,0,0,0
"260","2X1xhDjv","Self-control",75,20,45,35,"Yes to treatment",77,4117,2.25,1,"35",-26.4,15.8,6.86354585066508e-07,0.537993292930582,0.717949307354621,0.973779881033784,0,0,0
"261","2X1xhDjv","Self-control",75,85,5,10,"No to treatment",90,1583,0.0588235294117647,1,"36",38.6,-24.2,6.86354585066508e-07,0.537993292930582,0.717949307354621,0.973779881033784,0,0,0
"262","2X1xhDjv","Self-control",75,20,60,20,"Yes to treatment",90,1268,3,1,"37",-26.4,30.8,6.86354585066508e-07,0.537993292930582,0.717949307354621,0.973779881033784,0,0,0
"263","2X1xhDjv","Self-control",75,10,60,30,"Yes to treatment",77,2110,6,1,"38",-36.4,30.8,6.86354585066508e-07,0.537993292930582,0.717949307354621,0.973779881033784,0,0,0
"264","2X1xhDjv","Self-control",75,75,5,20,"No to treatment",90,1686,0.0666666666666667,1,"39",28.6,-24.2,6.86354585066508e-07,0.537993292930582,0.717949307354621,0.973779881033784,0,0,0
"265","2X1xhDjv","Self-control",75,50,5,45,"No to treatment",77,1251,0.1,1,"40",3.6,-24.2,6.86354585066508e-07,0.537993292930582,0.717949307354621,0.973779881033784,0,0,0
"266","2X1xhDjv","Self-control",75,55,10,35,"No to treatment",90,1064,0.181818181818182,1,"41",8.6,-19.2,6.86354585066508e-07,0.537993292930582,0.717949307354621,0.973779881033784,0,0,0
"267","2X1xhDjv","Self-control",75,35,10,55,"No to treatment",77,1137,0.285714285714286,1,"42",-11.4,-19.2,6.86354585066508e-07,0.537993292930582,0.717949307354621,0.973779881033784,0,0,0
"268","2X1xhDjv","Self-control",75,80,15,5,"No to treatment",90,1320,0.1875,1,"43",33.6,-14.2,6.86354585066508e-07,0.537993292930582,0.717949307354621,0.973779881033784,0,0,0
"269","2X1xhDjv","Self-control",75,20,50,30,"Yes to treatment",77,1524,2.5,1,"44",-26.4,20.8,6.86354585066508e-07,0.537993292930582,0.717949307354621,0.973779881033784,0,0,0
"270","2X1xhDjv","Self-control",75,15,15,70,"No to treatment",77,1216,1,1,"45",-31.4,-14.2,6.86354585066508e-07,0.537993292930582,0.717949307354621,0.973779881033784,0,0,0
"271","2X1xhDjv","Self-control",75,65,15,20,"No to treatment",90,851,0.230769230769231,1,"46",18.6,-14.2,6.86354585066508e-07,0.537993292930582,0.717949307354621,0.973779881033784,0,0,0
"272","2X1xhDjv","Self-control",75,50,35,15,"No to treatment",90,1038,0.7,1,"47",3.6,5.8,6.86354585066508e-07,0.537993292930582,0.717949307354621,0.973779881033784,0,0,0
"273","2X1xhDjv","Self-control",75,50,45,5,"No to treatment",90,1212,0.9,1,"48",3.6,15.8,6.86354585066508e-07,0.537993292930582,0.717949307354621,0.973779881033784,0,0,0
"274","2X1xhDjv","Self-control",75,50,15,35,"No to treatment",90,1363,0.3,1,"49",3.6,-14.2,6.86354585066508e-07,0.537993292930582,0.717949307354621,0.973779881033784,0,0,0
"275","2X1xhDjv","Self-control",75,50,25,25,"No to treatment",77,2612,0.5,1,"50",3.6,-4.2,6.86354585066508e-07,0.537993292930582,0.717949307354621,0.973779881033784,0,0,0
"276","2X1xhDjv","Self-control",75,5,30,65,"Yes to treatment",77,1450,6,1,"51",-41.4,0.800000000000001,6.86354585066508e-07,0.537993292930582,0.717949307354621,0.973779881033784,0,0,0
"277","2X1xhDjv","Self-control",75,15,30,55,"Yes to treatment",77,2206,2,1,"52",-31.4,0.800000000000001,6.86354585066508e-07,0.537993292930582,0.717949307354621,0.973779881033784,0,0,0
"278","2X1xhDjv","Self-control",75,65,30,5,"No to treatment",77,1216,0.461538461538462,1,"53",18.6,0.800000000000001,6.86354585066508e-07,0.537993292930582,0.717949307354621,0.973779881033784,0,0,0
"279","2X1xhDjv","Self-control",75,10,45,45,"Yes to treatment",90,1462,4.5,1,"54",-36.4,15.8,6.86354585066508e-07,0.537993292930582,0.717949307354621,0.973779881033784,0,0,0
"280","2X1xhDjv","Self-control",75,35,20,45,"No to treatment",77,845,0.571428571428571,1,"55",-11.4,-9.2,6.86354585066508e-07,0.537993292930582,0.717949307354621,0.973779881033784,0,0,0
"281","2X1xhDjv","Self-control",75,90,5,5,"No to treatment",90,843,0.0555555555555556,1,"56",43.6,-24.2,6.86354585066508e-07,0.537993292930582,0.717949307354621,0.973779881033784,0,0,0
"282","2X1xhDjv","Self-control",75,30,55,15,"No to treatment",90,1385,1.83333333333333,1,"57",-16.4,25.8,6.86354585066508e-07,0.537993292930582,0.717949307354621,0.973779881033784,0,0,0
"283","2X1xhDjv","Self-control",75,85,5,10,"No to treatment",90,2141,0.0588235294117647,1,"58",38.6,-24.2,6.86354585066508e-07,0.537993292930582,0.717949307354621,0.973779881033784,0,0,0
"284","2X1xhDjv","Self-control",75,40,55,5,"No to treatment",90,2426,1.375,1,"59",-6.4,25.8,6.86354585066508e-07,0.537993292930582,0.717949307354621,0.973779881033784,0,0,0
"285","2X1xhDjv","Self-control",75,50,35,15,"No to treatment",90,914,0.7,1,"60",3.6,5.8,6.86354585066508e-07,0.537993292930582,0.717949307354621,0.973779881033784,0,0,0
"286","2X1xhDjv","Self-control",75,90,5,5,"No to treatment",77,1419,0.0555555555555556,1,"61",43.6,-24.2,6.86354585066508e-07,0.537993292930582,0.717949307354621,0.973779881033784,0,0,0
"287","2X1xhDjv","Self-control",75,80,10,10,"No to treatment",77,946,0.125,1,"62",33.6,-19.2,6.86354585066508e-07,0.537993292930582,0.717949307354621,0.973779881033784,0,0,0
"288","2X1xhDjv","Self-control",75,60,35,5,"No to treatment",77,967,0.583333333333333,1,"63",13.6,5.8,6.86354585066508e-07,0.537993292930582,0.717949307354621,0.973779881033784,0,0,0
"289","2X1xhDjv","Self-control",75,80,10,10,"No to treatment",90,1115,0.125,1,"64",33.6,-19.2,6.86354585066508e-07,0.537993292930582,0.717949307354621,0.973779881033784,0,0,0
"290","2X1xhDjv","Self-control",75,60,30,10,"No to treatment",77,880,0.5,1,"65",13.6,0.800000000000001,6.86354585066508e-07,0.537993292930582,0.717949307354621,0.973779881033784,0,0,0
"291","2X1xhDjv","Self-control",75,45,25,30,"No to treatment",77,1065,0.555555555555556,1,"66",-1.4,-4.2,6.86354585066508e-07,0.537993292930582,0.717949307354621,0.973779881033784,0,0,0
"292","2X1xhDjv","Self-control",75,10,80,10,"Yes to treatment",90,1963,8,1,"67",-36.4,50.8,6.86354585066508e-07,0.537993292930582,0.717949307354621,0.973779881033784,0,0,0
"293","2X1xhDjv","Self-control",75,60,5,35,"No to treatment",90,1462,0.0833333333333333,1,"68",13.6,-24.2,6.86354585066508e-07,0.537993292930582,0.717949307354621,0.973779881033784,0,0,0
"294","2X1xhDjv","Self-control",75,10,45,45,"Yes to treatment",77,1588,4.5,1,"69",-36.4,15.8,6.86354585066508e-07,0.537993292930582,0.717949307354621,0.973779881033784,0,0,0
"295","2X1xhDjv","Self-control",75,60,10,30,"No to treatment",90,1233,0.166666666666667,1,"70",13.6,-19.2,6.86354585066508e-07,0.537993292930582,0.717949307354621,0.973779881033784,0,0,0
"296","2X1xhDjv","Self-control",75,75,5,20,"No to treatment",77,936,0.0666666666666667,1,"71",28.6,-24.2,6.86354585066508e-07,0.537993292930582,0.717949307354621,0.973779881033784,0,0,0
"297","2X1xhDjv","Self-control",75,10,80,10,"Yes to treatment",90,987,8,1,"72",-36.4,50.8,6.86354585066508e-07,0.537993292930582,0.717949307354621,0.973779881033784,0,0,0
"298","2X1xhDjv","Self-control",75,85,10,5,"No to treatment",90,1072,0.117647058823529,1,"73",38.6,-19.2,6.86354585066508e-07,0.537993292930582,0.717949307354621,0.973779881033784,0,0,0
"299","2X1xhDjv","Self-control",75,45,50,5,"No to treatment",90,956,1.11111111111111,1,"74",-1.4,20.8,6.86354585066508e-07,0.537993292930582,0.717949307354621,0.973779881033784,0,0,0
"300","2X1xhDjv","Self-control",75,70,25,5,"No to treatment",77,852,0.357142857142857,1,"75",23.6,-4.2,6.86354585066508e-07,0.537993292930582,0.717949307354621,0.973779881033784,0,0,0
"301","363Bpm6B","Short Term (Working) Memory",75,50,5,45,"No to treatment",77,673.629999997502,0.1,1,"1",2.8,-18.2,0.057716839281271,0.972885987704287,1.10831948208094,0.998889670991599,0,0,0
"302","363Bpm6B","Short Term (Working) Memory",75,15,40,45,"Yes to treatment",90,731.45499999373,2.66666666666667,1,"2",-32.2,16.8,0.057716839281271,0.972885987704287,1.10831948208094,0.998889670991599,0,0,0
"303","363Bpm6B","Short Term (Working) Memory",75,25,5,70,"No to treatment",90,734.165000001667,0.2,1,"3",-22.2,-18.2,0.057716839281271,0.972885987704287,1.10831948208094,0.998889670991599,0,0,0
"304","363Bpm6B","Short Term (Working) Memory",75,25,40,35,"Yes to treatment",77,532.37000000081,1.6,1,"4",-22.2,16.8,0.057716839281271,0.972885987704287,1.10831948208094,0.998889670991599,0,0,0
"305","363Bpm6B","Short Term (Working) Memory",75,10,80,10,"Yes to treatment",77,429.170000003069,8,1,"5",-37.2,56.8,0.057716839281271,0.972885987704287,1.10831948208094,0.998889670991599,0,0,0
"306","363Bpm6B","Short Term (Working) Memory",75,20,70,10,"Yes to treatment",77,596.214999997756,3.5,1,"6",-27.2,46.8,0.057716839281271,0.972885987704287,1.10831948208094,0.998889670991599,0,0,0
"307","363Bpm6B","Short Term (Working) Memory",75,10,10,80,"No to treatment",77,419.109999995271,1,1,"7",-37.2,-13.2,0.057716839281271,0.972885987704287,1.10831948208094,0.998889670991599,0,0,0
"308","363Bpm6B","Short Term (Working) Memory",75,80,10,10,"No to treatment",77,785.900000002584,0.125,1,"8",32.8,-13.2,0.057716839281271,0.972885987704287,1.10831948208094,0.998889670991599,0,0,0
"309","363Bpm6B","Short Term (Working) Memory",75,65,10,25,"No to treatment",90,621.104999998352,0.153846153846154,1,"9",17.8,-13.2,0.057716839281271,0.972885987704287,1.10831948208094,0.998889670991599,0,0,0
"310","363Bpm6B","Short Term (Working) Memory",75,25,40,35,"Yes to treatment",77,1149.70500000345,1.6,1,"10",-22.2,16.8,0.057716839281271,0.972885987704287,1.10831948208094,0.998889670991599,0,0,0
"311","363Bpm6B","Short Term (Working) Memory",75,15,80,5,"Yes to treatment",77,425.465000000258,5.33333333333333,1,"11",-32.2,56.8,0.057716839281271,0.972885987704287,1.10831948208094,0.998889670991599,0,0,0
"312","363Bpm6B","Short Term (Working) Memory",75,60,20,20,"No to treatment",90,474.12500000064,0.333333333333333,1,"12",12.8,-3.2,0.057716839281271,0.972885987704287,1.10831948208094,0.998889670991599,0,0,0
"313","363Bpm6B","Short Term (Working) Memory",75,30,25,45,"No to treatment",90,523.339999999735,0.833333333333333,1,"13",-17.2,1.8,0.057716839281271,0.972885987704287,1.10831948208094,0.998889670991599,0,0,0
"314","363Bpm6B","Short Term (Working) Memory",75,10,60,30,"Yes to treatment",90,494.490000004589,6,1,"14",-37.2,36.8,0.057716839281271,0.972885987704287,1.10831948208094,0.998889670991599,0,0,0
"315","363Bpm6B","Short Term (Working) Memory",75,55,15,30,"No to treatment",77,711.699999999837,0.272727272727273,1,"15",7.8,-8.2,0.057716839281271,0.972885987704287,1.10831948208094,0.998889670991599,0,0,0
"316","363Bpm6B","Short Term (Working) Memory",75,30,20,50,"No to treatment",77,1428.19500000041,0.666666666666667,1,"16",-17.2,-3.2,0.057716839281271,0.972885987704287,1.10831948208094,0.998889670991599,0,0,0
"317","363Bpm6B","Short Term (Working) Memory",75,70,10,20,"No to treatment",90,435.76999999641,0.142857142857143,1,"17",22.8,-13.2,0.057716839281271,0.972885987704287,1.10831948208094,0.998889670991599,0,0,0
"318","363Bpm6B","Short Term (Working) Memory",75,5,60,35,"Yes to treatment",77,628.385000003618,12,1,"18",-42.2,36.8,0.057716839281271,0.972885987704287,1.10831948208094,0.998889670991599,0,0,0
"319","363Bpm6B","Short Term (Working) Memory",75,80,10,10,"No to treatment",90,450.64000000275,0.125,1,"19",32.8,-13.2,0.057716839281271,0.972885987704287,1.10831948208094,0.998889670991599,0,0,0
"320","363Bpm6B","Short Term (Working) Memory",75,15,10,75,"No to treatment",90,437.050000000454,0.666666666666667,1,"20",-32.2,-13.2,0.057716839281271,0.972885987704287,1.10831948208094,0.998889670991599,0,0,0
"321","363Bpm6B","Short Term (Working) Memory",75,75,15,10,"No to treatment",90,1060.51999999909,0.2,1,"21",27.8,-8.2,0.057716839281271,0.972885987704287,1.10831948208094,0.998889670991599,0,0,0
"322","363Bpm6B","Short Term (Working) Memory",75,85,10,5,"No to treatment",77,404.04000000126,0.117647058823529,1,"22",37.8,-13.2,0.057716839281271,0.972885987704287,1.10831948208094,0.998889670991599,0,0,0
"323","363Bpm6B","Short Term (Working) Memory",75,85,10,5,"No to treatment",90,386.884999999893,0.117647058823529,1,"23",37.8,-13.2,0.057716839281271,0.972885987704287,1.10831948208094,0.998889670991599,0,0,0
"324","363Bpm6B","Short Term (Working) Memory",75,10,50,40,"No to treatment",77,475.440000001981,5,1,"24",-37.2,26.8,0.057716839281271,0.972885987704287,1.10831948208094,0.998889670991599,0,0,0
"325","363Bpm6B","Short Term (Working) Memory",75,30,15,55,"No to treatment",77,441.78500000271,0.5,1,"25",-17.2,-8.2,0.057716839281271,0.972885987704287,1.10831948208094,0.998889670991599,0,0,0
"326","363Bpm6B","Short Term (Working) Memory",75,65,30,5,"No to treatment",90,510.090000003402,0.461538461538462,1,"26",17.8,6.8,0.057716839281271,0.972885987704287,1.10831948208094,0.998889670991599,0,0,0
"327","363Bpm6B","Short Term (Working) Memory",75,10,15,75,"No to treatment",90,419.254999993427,1.5,1,"27",-37.2,-8.2,0.057716839281271,0.972885987704287,1.10831948208094,0.998889670991599,0,0,0
"328","363Bpm6B","Short Term (Working) Memory",75,20,5,75,"No to treatment",77,504.984999999579,0.25,1,"28",-27.2,-18.2,0.057716839281271,0.972885987704287,1.10831948208094,0.998889670991599,0,0,0
"329","363Bpm6B","Short Term (Working) Memory",75,55,35,10,"No to treatment",90,573.725000002014,0.636363636363636,1,"29",7.8,11.8,0.057716839281271,0.972885987704287,1.10831948208094,0.998889670991599,0,0,0
"330","363Bpm6B","Short Term (Working) Memory",75,10,10,80,"No to treatment",77,590.420000000449,1,1,"30",-37.2,-13.2,0.057716839281271,0.972885987704287,1.10831948208094,0.998889670991599,0,0,0
"331","363Bpm6B","Short Term (Working) Memory",75,70,20,10,"Yes to treatment",90,372.250000000349,0.285714285714286,1,"31",22.8,-3.2,0.057716839281271,0.972885987704287,1.10831948208094,0.998889670991599,0,0,0
"332","363Bpm6B","Short Term (Working) Memory",75,45,5,50,"No to treatment",77,4294.34999999648,0.111111111111111,1,"32",-2.2,-18.2,0.057716839281271,0.972885987704287,1.10831948208094,0.998889670991599,0,0,0
"333","363Bpm6B","Short Term (Working) Memory",75,50,35,15,"No to treatment",90,360.059999999066,0.7,1,"33",2.8,11.8,0.057716839281271,0.972885987704287,1.10831948208094,0.998889670991599,0,0,0
"334","363Bpm6B","Short Term (Working) Memory",75,25,55,20,"Yes to treatment",77,556.049999999232,2.2,1,"34",-22.2,31.8,0.057716839281271,0.972885987704287,1.10831948208094,0.998889670991599,0,0,0
"335","363Bpm6B","Short Term (Working) Memory",75,85,5,10,"No to treatment",90,402.91000000434,0.0588235294117647,1,"35",37.8,-18.2,0.057716839281271,0.972885987704287,1.10831948208094,0.998889670991599,0,0,0
"336","363Bpm6B","Short Term (Working) Memory",75,90,5,5,"No to treatment",90,373.084999999264,0.0555555555555556,1,"36",42.8,-18.2,0.057716839281271,0.972885987704287,1.10831948208094,0.998889670991599,0,0,0
"337","363Bpm6B","Short Term (Working) Memory",75,45,35,20,"No to treatment",90,417.860000001383,0.777777777777778,1,"37",-2.2,11.8,0.057716839281271,0.972885987704287,1.10831948208094,0.998889670991599,0,0,0
"338","363Bpm6B","Short Term (Working) Memory",75,55,25,20,"No to treatment",90,413.645000000542,0.454545454545455,1,"38",7.8,1.8,0.057716839281271,0.972885987704287,1.10831948208094,0.998889670991599,0,0,0
"339","363Bpm6B","Short Term (Working) Memory",75,65,15,20,"No to treatment",90,368.804999998247,0.230769230769231,1,"39",17.8,-8.2,0.057716839281271,0.972885987704287,1.10831948208094,0.998889670991599,0,0,0
"340","363Bpm6B","Short Term (Working) Memory",75,15,20,65,"No to treatment",77,443.290000002889,1.33333333333333,1,"40",-32.2,-3.2,0.057716839281271,0.972885987704287,1.10831948208094,0.998889670991599,0,0,0
"341","363Bpm6B","Short Term (Working) Memory",75,85,5,10,"No to treatment",77,497.304999997141,0.0588235294117647,1,"41",37.8,-18.2,0.057716839281271,0.972885987704287,1.10831948208094,0.998889670991599,0,0,0
"342","363Bpm6B","Short Term (Working) Memory",75,80,15,5,"No to treatment",90,412.079999994603,0.1875,1,"42",32.8,-8.2,0.057716839281271,0.972885987704287,1.10831948208094,0.998889670991599,0,0,0
"343","363Bpm6B","Short Term (Working) Memory",75,15,50,35,"Yes to treatment",77,634.859999998298,3.33333333333333,1,"43",-32.2,26.8,0.057716839281271,0.972885987704287,1.10831948208094,0.998889670991599,0,0,0
"344","363Bpm6B","Short Term (Working) Memory",75,60,15,25,"No to treatment",77,397.070000006352,0.25,1,"44",12.8,-8.2,0.057716839281271,0.972885987704287,1.10831948208094,0.998889670991599,0,0,0
"345","363Bpm6B","Short Term (Working) Memory",75,75,15,10,"No to treatment",77,357.799999997951,0.2,1,"45",27.8,-8.2,0.057716839281271,0.972885987704287,1.10831948208094,0.998889670991599,0,0,0
"346","363Bpm6B","Short Term (Working) Memory",75,90,5,5,"No to treatment",90,418.490000003658,0.0555555555555556,1,"46",42.8,-18.2,0.057716839281271,0.972885987704287,1.10831948208094,0.998889670991599,0,0,0
"347","363Bpm6B","Short Term (Working) Memory",75,25,25,50,"No to treatment",77,925.469999994675,1,1,"47",-22.2,1.8,0.057716839281271,0.972885987704287,1.10831948208094,0.998889670991599,0,0,0
"348","363Bpm6B","Short Term (Working) Memory",75,15,35,50,"Yes to treatment",90,636.780000000726,2.33333333333333,1,"48",-32.2,11.8,0.057716839281271,0.972885987704287,1.10831948208094,0.998889670991599,0,0,0
"349","363Bpm6B","Short Term (Working) Memory",75,85,5,10,"No to treatment",90,425.504999999248,0.0588235294117647,1,"49",37.8,-18.2,0.057716839281271,0.972885987704287,1.10831948208094,0.998889670991599,0,0,0
"350","363Bpm6B","Short Term (Working) Memory",75,25,45,30,"Yes to treatment",90,445.570000003499,1.8,1,"50",-22.2,21.8,0.057716839281271,0.972885987704287,1.10831948208094,0.998889670991599,0,0,0
"351","363Bpm6B","Short Term (Working) Memory",75,45,20,35,"No to treatment",77,460.465000003751,0.444444444444444,1,"51",-2.2,-3.2,0.057716839281271,0.972885987704287,1.10831948208094,0.998889670991599,0,0,0
"352","363Bpm6B","Short Term (Working) Memory",75,75,5,20,"No to treatment",90,386.450000005425,0.0666666666666667,1,"52",27.8,-18.2,0.057716839281271,0.972885987704287,1.10831948208094,0.998889670991599,0,0,0
"353","363Bpm6B","Short Term (Working) Memory",75,15,20,65,"No to treatment",90,378.595000001951,1.33333333333333,1,"53",-32.2,-3.2,0.057716839281271,0.972885987704287,1.10831948208094,0.998889670991599,0,0,0
"354","363Bpm6B","Short Term (Working) Memory",75,20,20,60,"No to treatment",77,1091.33999999904,1,1,"54",-27.2,-3.2,0.057716839281271,0.972885987704287,1.10831948208094,0.998889670991599,0,0,0
"355","363Bpm6B","Short Term (Working) Memory",75,15,10,75,"No to treatment",77,459.719999998924,0.666666666666667,1,"55",-32.2,-13.2,0.057716839281271,0.972885987704287,1.10831948208094,0.998889670991599,0,0,0
"356","363Bpm6B","Short Term (Working) Memory",75,15,50,35,"No to treatment",90,381.0150000063,3.33333333333333,1,"56",-32.2,26.8,0.057716839281271,0.972885987704287,1.10831948208094,0.998889670991599,0,0,0
"357","363Bpm6B","Short Term (Working) Memory",75,60,35,5,"No to treatment",90,517.675000002782,0.583333333333333,1,"57",12.8,11.8,0.057716839281271,0.972885987704287,1.10831948208094,0.998889670991599,0,0,0
"358","363Bpm6B","Short Term (Working) Memory",75,45,20,35,"No to treatment",77,437.259999998787,0.444444444444444,1,"58",-2.2,-3.2,0.057716839281271,0.972885987704287,1.10831948208094,0.998889670991599,0,0,0
"359","363Bpm6B","Short Term (Working) Memory",75,35,40,25,"No to treatment",90,443.930000001274,1.14285714285714,1,"59",-12.2,16.8,0.057716839281271,0.972885987704287,1.10831948208094,0.998889670991599,0,0,0
"360","363Bpm6B","Short Term (Working) Memory",75,90,5,5,"No to treatment",77,405.954999994719,0.0555555555555556,1,"60",42.8,-18.2,0.057716839281271,0.972885987704287,1.10831948208094,0.998889670991599,0,0,0
"361","363Bpm6B","Short Term (Working) Memory",75,35,10,55,"No to treatment",77,517.735000001267,0.285714285714286,1,"61",-12.2,-13.2,0.057716839281271,0.972885987704287,1.10831948208094,0.998889670991599,0,0,0
"362","363Bpm6B","Short Term (Working) Memory",75,80,15,5,"No to treatment",77,426.664999999048,0.1875,1,"62",32.8,-8.2,0.057716839281271,0.972885987704287,1.10831948208094,0.998889670991599,0,0,0
"363","363Bpm6B","Short Term (Working) Memory",75,60,35,5,"No to treatment",90,387.374999998428,0.583333333333333,1,"63",12.8,11.8,0.057716839281271,0.972885987704287,1.10831948208094,0.998889670991599,0,0,0
"364","363Bpm6B","Short Term (Working) Memory",75,85,5,10,"No to treatment",77,404.894999999669,0.0588235294117647,1,"64",37.8,-18.2,0.057716839281271,0.972885987704287,1.10831948208094,0.998889670991599,0,0,0
"365","363Bpm6B","Short Term (Working) Memory",75,45,25,30,"No to treatment",77,819.26999999996,0.555555555555556,1,"65",-2.2,1.8,0.057716839281271,0.972885987704287,1.10831948208094,0.998889670991599,0,0,0
"366","363Bpm6B","Short Term (Working) Memory",75,75,20,5,"No to treatment",90,420.40999999881,0.266666666666667,1,"66",27.8,-3.2,0.057716839281271,0.972885987704287,1.10831948208094,0.998889670991599,0,0,0
"367","363Bpm6B","Short Term (Working) Memory",75,65,25,10,"No to treatment",90,466.535000006843,0.384615384615385,1,"67",17.8,1.8,0.057716839281271,0.972885987704287,1.10831948208094,0.998889670991599,0,0,0
"368","363Bpm6B","Short Term (Working) Memory",75,30,25,45,"No to treatment",90,1132.51000000309,0.833333333333333,1,"68",-17.2,1.8,0.057716839281271,0.972885987704287,1.10831948208094,0.998889670991599,0,0,0
"369","363Bpm6B","Short Term (Working) Memory",75,80,5,15,"No to treatment",77,517.415000002075,0.0625,1,"69",32.8,-18.2,0.057716839281271,0.972885987704287,1.10831948208094,0.998889670991599,0,0,0
"370","363Bpm6B","Short Term (Working) Memory",75,70,5,25,"No to treatment",90,661.850000004051,0.0714285714285714,1,"70",22.8,-18.2,0.057716839281271,0.972885987704287,1.10831948208094,0.998889670991599,0,0,0
"371","363Bpm6B","Short Term (Working) Memory",75,70,10,20,"No to treatment",77,348.23999999935,0.142857142857143,1,"71",22.8,-13.2,0.057716839281271,0.972885987704287,1.10831948208094,0.998889670991599,0,0,0
"372","363Bpm6B","Short Term (Working) Memory",75,55,20,25,"No to treatment",90,443.294999997306,0.363636363636364,1,"72",7.8,-3.2,0.057716839281271,0.972885987704287,1.10831948208094,0.998889670991599,0,0,0
"373","363Bpm6B","Short Term (Working) Memory",75,80,15,5,"No to treatment",90,395.470000003115,0.1875,1,"73",32.8,-8.2,0.057716839281271,0.972885987704287,1.10831948208094,0.998889670991599,0,0,0
"374","363Bpm6B","Short Term (Working) Memory",75,10,35,55,"Yes to treatment",90,627.804999996442,3.5,1,"74",-37.2,11.8,0.057716839281271,0.972885987704287,1.10831948208094,0.998889670991599,0,0,0
"375","363Bpm6B","Short Term (Working) Memory",75,45,15,40,"No to treatment",90,523.839999994379,0.333333333333333,1,"75",-2.2,-8.2,0.057716839281271,0.972885987704287,1.10831948208094,0.998889670991599,0,0,0
"376","3eryCPLE","Attention (Concentration)",75,80,10,10,"No to treatment",77,1370.43999999878,0.125,1,"1",26.9333333333333,-15.2666666666667,0.00130440746383013,0.91397218105711,1.48965119330938,1.00807628064775,0,1,1
"377","3eryCPLE","Attention (Concentration)",75,45,50,5,"Yes to treatment",90,3004.09499998204,1.11111111111111,1,"2",-8.06666666666667,24.7333333333333,0.00130440746383013,0.91397218105711,1.48965119330938,1.00807628064775,0,1,1
"378","3eryCPLE","Attention (Concentration)",75,80,10,10,"No to treatment",90,2433.30000000424,0.125,1,"3",26.9333333333333,-15.2666666666667,0.00130440746383013,0.91397218105711,1.48965119330938,1.00807628064775,0,1,1
"379","3eryCPLE","Attention (Concentration)",75,30,50,20,"Yes to treatment",90,1009.86499999999,1.66666666666667,1,"4",-23.0666666666667,24.7333333333333,0.00130440746383013,0.91397218105711,1.48965119330938,1.00807628064775,0,1,1
"380","3eryCPLE","Attention (Concentration)",75,30,25,45,"No to treatment",77,2597.06000000006,0.833333333333333,1,"5",-23.0666666666667,-0.266666666666666,0.00130440746383013,0.91397218105711,1.48965119330938,1.00807628064775,0,1,1
"381","3eryCPLE","Attention (Concentration)",75,15,70,15,"Yes to treatment",77,906.780000019353,4.66666666666667,1,"6",-38.0666666666667,44.7333333333333,0.00130440746383013,0.91397218105711,1.48965119330938,1.00807628064775,0,1,1
"382","3eryCPLE","Attention (Concentration)",75,85,5,10,"No to treatment",77,2209.2849999899,0.0588235294117647,1,"7",31.9333333333333,-20.2666666666667,0.00130440746383013,0.91397218105711,1.48965119330938,1.00807628064775,0,1,1
"383","3eryCPLE","Attention (Concentration)",75,75,10,15,"No to treatment",77,1432.90000001434,0.133333333333333,1,"8",21.9333333333333,-15.2666666666667,0.00130440746383013,0.91397218105711,1.48965119330938,1.00807628064775,0,1,1
"384","3eryCPLE","Attention (Concentration)",75,10,85,5,"No to treatment",90,2665.83000001265,8.5,1,"9",-43.0666666666667,59.7333333333333,0.00130440746383013,0.91397218105711,1.48965119330938,1.00807628064775,0,1,1
"385","3eryCPLE","Attention (Concentration)",75,80,10,10,"No to treatment",90,2056.71000000439,0.125,1,"10",26.9333333333333,-15.2666666666667,0.00130440746383013,0.91397218105711,1.48965119330938,1.00807628064775,0,1,1
"386","3eryCPLE","Attention (Concentration)",75,55,25,20,"No to treatment",90,1651.03999999701,0.454545454545455,1,"11",1.93333333333333,-0.266666666666666,0.00130440746383013,0.91397218105711,1.48965119330938,1.00807628064775,0,1,1
"387","3eryCPLE","Attention (Concentration)",75,15,75,10,"Yes to treatment",90,1186.12500000745,5,1,"12",-38.0666666666667,49.7333333333333,0.00130440746383013,0.91397218105711,1.48965119330938,1.00807628064775,0,1,1
"388","3eryCPLE","Attention (Concentration)",75,90,5,5,"No to treatment",77,950.270000001183,0.0555555555555556,1,"13",36.9333333333333,-20.2666666666667,0.00130440746383013,0.91397218105711,1.48965119330938,1.00807628064775,0,1,1
"389","3eryCPLE","Attention (Concentration)",75,65,30,5,"No to treatment",77,2391.94999999017,0.461538461538462,1,"14",11.9333333333333,4.73333333333333,0.00130440746383013,0.91397218105711,1.48965119330938,1.00807628064775,0,1,1
"390","3eryCPLE","Attention (Concentration)",75,20,55,25,"No to treatment",77,4698.73999999254,2.75,1,"15",-33.0666666666667,29.7333333333333,0.00130440746383013,0.91397218105711,1.48965119330938,1.00807628064775,0,1,1
"391","3eryCPLE","Attention (Concentration)",75,65,10,25,"No to treatment",77,3080.14000000549,0.153846153846154,1,"16",11.9333333333333,-15.2666666666667,0.00130440746383013,0.91397218105711,1.48965119330938,1.00807628064775,0,1,1
"392","3eryCPLE","Attention (Concentration)",75,20,15,65,"No to treatment",90,1562.59499999578,0.75,1,"17",-33.0666666666667,-10.2666666666667,0.00130440746383013,0.91397218105711,1.48965119330938,1.00807628064775,0,1,1
"393","3eryCPLE","Attention (Concentration)",75,80,15,5,"No to treatment",90,5608.76999999164,0.1875,1,"18",26.9333333333333,-10.2666666666667,0.00130440746383013,0.91397218105711,1.48965119330938,1.00807628064775,0,1,1
"394","3eryCPLE","Attention (Concentration)",75,90,5,5,"No to treatment",90,1507.47500002035,0.0555555555555556,1,"19",36.9333333333333,-20.2666666666667,0.00130440746383013,0.91397218105711,1.48965119330938,1.00807628064775,0,1,1
"395","3eryCPLE","Attention (Concentration)",75,55,15,30,"No to treatment",77,1748.59500001185,0.272727272727273,1,"20",1.93333333333333,-10.2666666666667,0.00130440746383013,0.91397218105711,1.48965119330938,1.00807628064775,0,1,1
"396","3eryCPLE","Attention (Concentration)",75,50,20,30,"No to treatment",77,2145.80999998725,0.4,1,"21",-3.06666666666667,-5.26666666666667,0.00130440746383013,0.91397218105711,1.48965119330938,1.00807628064775,0,1,1
"397","3eryCPLE","Attention (Concentration)",75,5,30,65,"No to treatment",77,2192.81999999657,6,1,"22",-48.0666666666667,4.73333333333333,0.00130440746383013,0.91397218105711,1.48965119330938,1.00807628064775,0,1,1
"398","3eryCPLE","Attention (Concentration)",75,85,10,5,"No to treatment",90,1652.15000000899,0.117647058823529,1,"23",31.9333333333333,-15.2666666666667,0.00130440746383013,0.91397218105711,1.48965119330938,1.00807628064775,0,1,1
"399","3eryCPLE","Attention (Concentration)",75,40,25,35,"No to treatment",90,2219.28499999922,0.625,1,"24",-13.0666666666667,-0.266666666666666,0.00130440746383013,0.91397218105711,1.48965119330938,1.00807628064775,0,1,1
"400","3eryCPLE","Attention (Concentration)",75,80,10,10,"No to treatment",77,1338.17999999155,0.125,1,"25",26.9333333333333,-15.2666666666667,0.00130440746383013,0.91397218105711,1.48965119330938,1.00807628064775,0,1,1
"401","3eryCPLE","Attention (Concentration)",75,20,75,5,"Yes to treatment",90,2425.41999998502,3.75,1,"26",-33.0666666666667,49.7333333333333,0.00130440746383013,0.91397218105711,1.48965119330938,1.00807628064775,0,1,1
"402","3eryCPLE","Attention (Concentration)",75,90,5,5,"No to treatment",77,2829.51999999932,0.0555555555555556,1,"27",36.9333333333333,-20.2666666666667,0.00130440746383013,0.91397218105711,1.48965119330938,1.00807628064775,0,1,1
"403","3eryCPLE","Attention (Concentration)",75,85,5,10,"No to treatment",90,1434.41000001621,0.0588235294117647,1,"28",31.9333333333333,-20.2666666666667,0.00130440746383013,0.91397218105711,1.48965119330938,1.00807628064775,0,1,1
"404","3eryCPLE","Attention (Concentration)",75,50,20,30,"No to treatment",77,2289.22500001499,0.4,1,"29",-3.06666666666667,-5.26666666666667,0.00130440746383013,0.91397218105711,1.48965119330938,1.00807628064775,0,1,1
"405","3eryCPLE","Attention (Concentration)",75,15,10,75,"No to treatment",77,1955.86999997613,0.666666666666667,1,"30",-38.0666666666667,-15.2666666666667,0.00130440746383013,0.91397218105711,1.48965119330938,1.00807628064775,0,1,1
"406","3eryCPLE","Attention (Concentration)",75,15,45,40,"No to treatment",77,2417.05499999807,3,1,"31",-38.0666666666667,19.7333333333333,0.00130440746383013,0.91397218105711,1.48965119330938,1.00807628064775,0,1,1
"407","3eryCPLE","Attention (Concentration)",75,80,15,5,"No to treatment",90,1467.57000000798,0.1875,1,"32",26.9333333333333,-10.2666666666667,0.00130440746383013,0.91397218105711,1.48965119330938,1.00807628064775,0,1,1
"408","3eryCPLE","Attention (Concentration)",75,65,30,5,"No to treatment",90,2817.70499999402,0.461538461538462,1,"33",11.9333333333333,4.73333333333333,0.00130440746383013,0.91397218105711,1.48965119330938,1.00807628064775,0,1,1
"409","3eryCPLE","Attention (Concentration)",75,30,60,10,"Yes to treatment",77,4306.35999998776,2,1,"34",-23.0666666666667,34.7333333333333,0.00130440746383013,0.91397218105711,1.48965119330938,1.00807628064775,0,1,1
"410","3eryCPLE","Attention (Concentration)",75,55,5,40,"No to treatment",77,1578.7399999972,0.0909090909090909,1,"35",1.93333333333333,-20.2666666666667,0.00130440746383013,0.91397218105711,1.48965119330938,1.00807628064775,0,1,1
"411","3eryCPLE","Attention (Concentration)",75,65,20,15,"No to treatment",77,1201.78500001202,0.307692307692308,1,"36",11.9333333333333,-5.26666666666667,0.00130440746383013,0.91397218105711,1.48965119330938,1.00807628064775,0,1,1
"412","3eryCPLE","Attention (Concentration)",75,5,65,30,"Yes to treatment",77,1666.08500000439,13,1,"37",-48.0666666666667,39.7333333333333,0.00130440746383013,0.91397218105711,1.48965119330938,1.00807628064775,0,1,1
"413","3eryCPLE","Attention (Concentration)",75,85,5,10,"No to treatment",77,1403.11000001384,0.0588235294117647,1,"38",31.9333333333333,-20.2666666666667,0.00130440746383013,0.91397218105711,1.48965119330938,1.00807628064775,0,1,1
"414","3eryCPLE","Attention (Concentration)",75,80,15,5,"No to treatment",77,1986.57000000821,0.1875,1,"39",26.9333333333333,-10.2666666666667,0.00130440746383013,0.91397218105711,1.48965119330938,1.00807628064775,0,1,1
"415","3eryCPLE","Attention (Concentration)",75,85,5,10,"No to treatment",77,1881.25999999465,0.0588235294117647,1,"40",31.9333333333333,-20.2666666666667,0.00130440746383013,0.91397218105711,1.48965119330938,1.00807628064775,0,1,1
"416","3eryCPLE","Attention (Concentration)",75,10,45,45,"No to treatment",90,2898.81499999319,4.5,1,"41",-43.0666666666667,19.7333333333333,0.00130440746383013,0.91397218105711,1.48965119330938,1.00807628064775,0,1,1
"417","3eryCPLE","Attention (Concentration)",75,50,35,15,"No to treatment",90,1529.34999999707,0.7,1,"42",-3.06666666666667,9.73333333333333,0.00130440746383013,0.91397218105711,1.48965119330938,1.00807628064775,0,1,1
"418","3eryCPLE","Attention (Concentration)",75,20,45,35,"Yes to treatment",90,4216.95499998168,2.25,1,"43",-33.0666666666667,19.7333333333333,0.00130440746383013,0.91397218105711,1.48965119330938,1.00807628064775,0,1,1
"419","3eryCPLE","Attention (Concentration)",75,40,50,10,"Yes to treatment",90,2721.89499999513,1.25,1,"44",-13.0666666666667,24.7333333333333,0.00130440746383013,0.91397218105711,1.48965119330938,1.00807628064775,0,1,1
"420","3eryCPLE","Attention (Concentration)",75,30,25,45,"No to treatment",77,5177.21500000334,0.833333333333333,1,"45",-23.0666666666667,-0.266666666666666,0.00130440746383013,0.91397218105711,1.48965119330938,1.00807628064775,0,1,1
"421","3eryCPLE","Attention (Concentration)",75,80,5,15,"No to treatment",90,1730.03999999491,0.0625,1,"46",26.9333333333333,-20.2666666666667,0.00130440746383013,0.91397218105711,1.48965119330938,1.00807628064775,0,1,1
"422","3eryCPLE","Attention (Concentration)",75,35,5,60,"No to treatment",77,1817.64500000281,0.142857142857143,1,"47",-18.0666666666667,-20.2666666666667,0.00130440746383013,0.91397218105711,1.48965119330938,1.00807628064775,0,1,1
"423","3eryCPLE","Attention (Concentration)",75,35,30,35,"No to treatment",90,3090.68500000285,0.857142857142857,1,"48",-18.0666666666667,4.73333333333333,0.00130440746383013,0.91397218105711,1.48965119330938,1.00807628064775,0,1,1
"424","3eryCPLE","Attention (Concentration)",75,30,5,65,"No to treatment",77,3012.00499999686,0.166666666666667,1,"49",-23.0666666666667,-20.2666666666667,0.00130440746383013,0.91397218105711,1.48965119330938,1.00807628064775,0,1,1
"425","3eryCPLE","Attention (Concentration)",75,60,30,10,"No to treatment",90,715.219999983674,0.5,1,"50",6.93333333333333,4.73333333333333,0.00130440746383013,0.91397218105711,1.48965119330938,1.00807628064775,0,1,1
"426","3eryCPLE","Attention (Concentration)",75,40,40,20,"No to treatment",77,2706.03500001016,1,1,"51",-13.0666666666667,14.7333333333333,0.00130440746383013,0.91397218105711,1.48965119330938,1.00807628064775,0,1,1
"427","3eryCPLE","Attention (Concentration)",75,30,50,20,"No to treatment",90,1597.1749999735,1.66666666666667,1,"52",-23.0666666666667,24.7333333333333,0.00130440746383013,0.91397218105711,1.48965119330938,1.00807628064775,0,1,1
"428","3eryCPLE","Attention (Concentration)",75,40,30,30,"No to treatment",90,2416.83500001091,0.75,1,"53",-13.0666666666667,4.73333333333333,0.00130440746383013,0.91397218105711,1.48965119330938,1.00807628064775,0,1,1
"429","3eryCPLE","Attention (Concentration)",75,35,50,15,"Yes to treatment",77,2083.33000002312,1.42857142857143,1,"54",-18.0666666666667,24.7333333333333,0.00130440746383013,0.91397218105711,1.48965119330938,1.00807628064775,0,1,1
"430","3eryCPLE","Attention (Concentration)",75,70,25,5,"No to treatment",77,1377.51500000013,0.357142857142857,1,"55",16.9333333333333,-0.266666666666666,0.00130440746383013,0.91397218105711,1.48965119330938,1.00807628064775,0,1,1
"431","3eryCPLE","Attention (Concentration)",75,75,5,20,"No to treatment",90,1065.56499999715,0.0666666666666667,1,"56",21.9333333333333,-20.2666666666667,0.00130440746383013,0.91397218105711,1.48965119330938,1.00807628064775,0,1,1
"432","3eryCPLE","Attention (Concentration)",75,35,25,40,"No to treatment",77,6248.06499999249,0.714285714285714,1,"57",-18.0666666666667,-0.266666666666666,0.00130440746383013,0.91397218105711,1.48965119330938,1.00807628064775,0,1,1
"433","3eryCPLE","Attention (Concentration)",75,80,5,15,"No to treatment",90,2346.44999998272,0.0625,1,"58",26.9333333333333,-20.2666666666667,0.00130440746383013,0.91397218105711,1.48965119330938,1.00807628064775,0,1,1
"434","3eryCPLE","Attention (Concentration)",75,75,15,10,"No to treatment",90,911.46000000299,0.2,1,"59",21.9333333333333,-10.2666666666667,0.00130440746383013,0.91397218105711,1.48965119330938,1.00807628064775,0,1,1
"435","3eryCPLE","Attention (Concentration)",75,35,30,35,"No to treatment",90,2922.68000001786,0.857142857142857,1,"60",-18.0666666666667,4.73333333333333,0.00130440746383013,0.91397218105711,1.48965119330938,1.00807628064775,0,1,1
"436","3eryCPLE","Attention (Concentration)",75,40,45,15,"Yes to treatment",90,4754.6399999992,1.125,1,"61",-13.0666666666667,19.7333333333333,0.00130440746383013,0.91397218105711,1.48965119330938,1.00807628064775,0,1,1
"437","3eryCPLE","Attention (Concentration)",75,75,5,20,"No to treatment",77,1291.1750000203,0.0666666666666667,1,"62",21.9333333333333,-20.2666666666667,0.00130440746383013,0.91397218105711,1.48965119330938,1.00807628064775,0,1,1
"438","3eryCPLE","Attention (Concentration)",75,90,5,5,"No to treatment",77,2432.83500001417,0.0555555555555556,1,"63",36.9333333333333,-20.2666666666667,0.00130440746383013,0.91397218105711,1.48965119330938,1.00807628064775,0,1,1
"439","3eryCPLE","Attention (Concentration)",75,65,10,25,"No to treatment",90,1674.62999999407,0.153846153846154,1,"64",11.9333333333333,-15.2666666666667,0.00130440746383013,0.91397218105711,1.48965119330938,1.00807628064775,0,1,1
"440","3eryCPLE","Attention (Concentration)",75,90,5,5,"No to treatment",77,1177.01000001398,0.0555555555555556,1,"65",36.9333333333333,-20.2666666666667,0.00130440746383013,0.91397218105711,1.48965119330938,1.00807628064775,0,1,1
"441","3eryCPLE","Attention (Concentration)",75,65,25,10,"No to treatment",77,1249.60499998997,0.384615384615385,1,"66",11.9333333333333,-0.266666666666666,0.00130440746383013,0.91397218105711,1.48965119330938,1.00807628064775,0,1,1
"442","3eryCPLE","Attention (Concentration)",75,75,5,20,"No to treatment",77,1025.40499999304,0.0666666666666667,1,"67",21.9333333333333,-20.2666666666667,0.00130440746383013,0.91397218105711,1.48965119330938,1.00807628064775,0,1,1
"443","3eryCPLE","Attention (Concentration)",75,15,5,80,"No to treatment",77,1521.78500001901,0.333333333333333,1,"68",-38.0666666666667,-20.2666666666667,0.00130440746383013,0.91397218105711,1.48965119330938,1.00807628064775,0,1,1
"444","3eryCPLE","Attention (Concentration)",75,35,60,5,"Yes to treatment",77,2192.28000001749,1.71428571428571,1,"69",-18.0666666666667,34.7333333333333,0.00130440746383013,0.91397218105711,1.48965119330938,1.00807628064775,0,1,1
"445","3eryCPLE","Attention (Concentration)",75,80,10,10,"No to treatment",90,2338.58000001055,0.125,1,"70",26.9333333333333,-15.2666666666667,0.00130440746383013,0.91397218105711,1.48965119330938,1.00807628064775,0,1,1
"446","3eryCPLE","Attention (Concentration)",75,20,20,60,"No to treatment",90,1458.01999999094,1,1,"71",-33.0666666666667,-5.26666666666667,0.00130440746383013,0.91397218105711,1.48965119330938,1.00807628064775,0,1,1
"447","3eryCPLE","Attention (Concentration)",75,65,25,10,"No to treatment",77,7478.98000001442,0.384615384615385,1,"72",11.9333333333333,-0.266666666666666,0.00130440746383013,0.91397218105711,1.48965119330938,1.00807628064775,0,1,1
"448","3eryCPLE","Attention (Concentration)",75,20,60,20,"No to treatment",90,2379.92000000668,3,1,"73",-33.0666666666667,34.7333333333333,0.00130440746383013,0.91397218105711,1.48965119330938,1.00807628064775,0,1,1
"449","3eryCPLE","Attention (Concentration)",75,90,5,5,"No to treatment",77,2737.68500000006,0.0555555555555556,1,"74",36.9333333333333,-20.2666666666667,0.00130440746383013,0.91397218105711,1.48965119330938,1.00807628064775,0,1,1
"450","3eryCPLE","Attention (Concentration)",75,80,10,10,"No to treatment",90,1835.04499998526,0.125,1,"75",26.9333333333333,-15.2666666666667,0.00130440746383013,0.91397218105711,1.48965119330938,1.00807628064775,0,1,1
"451","3FgQya4U","Short Term (Working) Memory",75,60,35,5,"No to treatment",90,1225.86999999476,0.583333333333333,1,"1",11.9333333333333,8.06666666666667,0.25534860964115,0.848351373001322,1.098043895819,0.99024018634454,1,1,1
"452","3FgQya4U","Short Term (Working) Memory",75,40,10,50,"No to treatment",90,1650.06000001449,0.25,1,"2",-8.06666666666667,-16.9333333333333,0.25534860964115,0.848351373001322,1.098043895819,0.99024018634454,1,1,1
"453","3FgQya4U","Short Term (Working) Memory",75,35,35,30,"Yes to treatment",77,2146.63500001188,1,1,"3",-13.0666666666667,8.06666666666667,0.25534860964115,0.848351373001322,1.098043895819,0.99024018634454,1,1,1
"454","3FgQya4U","Short Term (Working) Memory",75,65,25,10,"No to treatment",90,1844.68500001822,0.384615384615385,1,"4",16.9333333333333,-1.93333333333333,0.25534860964115,0.848351373001322,1.098043895819,0.99024018634454,1,1,1
"455","3FgQya4U","Short Term (Working) Memory",75,60,5,35,"No to treatment",90,1379.94499999331,0.0833333333333333,1,"5",11.9333333333333,-21.9333333333333,0.25534860964115,0.848351373001322,1.098043895819,0.99024018634454,1,1,1
"456","3FgQya4U","Short Term (Working) Memory",75,80,10,10,"No to treatment",90,1102.35499998089,0.125,1,"6",31.9333333333333,-16.9333333333333,0.25534860964115,0.848351373001322,1.098043895819,0.99024018634454,1,1,1
"457","3FgQya4U","Short Term (Working) Memory",75,75,15,10,"No to treatment",90,3292.51500000828,0.2,1,"7",26.9333333333333,-11.9333333333333,0.25534860964115,0.848351373001322,1.098043895819,0.99024018634454,1,1,1
"458","3FgQya4U","Short Term (Working) Memory",75,15,40,45,"Yes to treatment",77,1603.38499999489,2.66666666666667,1,"8",-33.0666666666667,13.0666666666667,0.25534860964115,0.848351373001322,1.098043895819,0.99024018634454,1,1,1
"459","3FgQya4U","Short Term (Working) Memory",75,30,65,5,"Yes to treatment",77,1486.89999998896,2.16666666666667,1,"9",-18.0666666666667,38.0666666666667,0.25534860964115,0.848351373001322,1.098043895819,0.99024018634454,1,1,1
"460","3FgQya4U","Short Term (Working) Memory",75,70,10,20,"No to treatment",90,1196.9949999766,0.142857142857143,1,"10",21.9333333333333,-16.9333333333333,0.25534860964115,0.848351373001322,1.098043895819,0.99024018634454,1,1,1
"461","3FgQya4U","Short Term (Working) Memory",75,25,35,40,"Yes to treatment",90,2739.37500000466,1.4,1,"11",-23.0666666666667,8.06666666666667,0.25534860964115,0.848351373001322,1.098043895819,0.99024018634454,1,1,1
"462","3FgQya4U","Short Term (Working) Memory",75,40,5,55,"No to treatment",77,1660.34499998204,0.125,1,"12",-8.06666666666667,-21.9333333333333,0.25534860964115,0.848351373001322,1.098043895819,0.99024018634454,1,1,1
"463","3FgQya4U","Short Term (Working) Memory",75,10,15,75,"No to treatment",77,1856.67999999714,1.5,1,"13",-38.0666666666667,-11.9333333333333,0.25534860964115,0.848351373001322,1.098043895819,0.99024018634454,1,1,1
"464","3FgQya4U","Short Term (Working) Memory",75,65,30,5,"No to treatment",77,1259.74000000861,0.461538461538462,1,"14",16.9333333333333,3.06666666666667,0.25534860964115,0.848351373001322,1.098043895819,0.99024018634454,1,1,1
"465","3FgQya4U","Short Term (Working) Memory",75,10,75,15,"Yes to treatment",77,998.740000010002,7.5,1,"15",-38.0666666666667,48.0666666666667,0.25534860964115,0.848351373001322,1.098043895819,0.99024018634454,1,1,1
"466","3FgQya4U","Short Term (Working) Memory",75,75,10,15,"No to treatment",77,1093.18499997607,0.133333333333333,1,"16",26.9333333333333,-16.9333333333333,0.25534860964115,0.848351373001322,1.098043895819,0.99024018634454,1,1,1
"467","3FgQya4U","Short Term (Working) Memory",75,30,60,10,"Yes to treatment",77,1212.8500000108,2,1,"17",-18.0666666666667,33.0666666666667,0.25534860964115,0.848351373001322,1.098043895819,0.99024018634454,1,1,1
"468","3FgQya4U","Short Term (Working) Memory",75,15,30,55,"Yes to treatment",77,2411.82500001742,2,1,"18",-33.0666666666667,3.06666666666667,0.25534860964115,0.848351373001322,1.098043895819,0.99024018634454,1,1,1
"469","3FgQya4U","Short Term (Working) Memory",75,10,55,35,"Yes to treatment",90,1430.42499999865,5.5,1,"19",-38.0666666666667,28.0666666666667,0.25534860964115,0.848351373001322,1.098043895819,0.99024018634454,1,1,1
"470","3FgQya4U","Short Term (Working) Memory",75,80,5,15,"Yes to treatment",77,1178.67999998271,0.0625,1,"20",31.9333333333333,-21.9333333333333,0.25534860964115,0.848351373001322,1.098043895819,0.99024018634454,1,1,1
"471","3FgQya4U","Short Term (Working) Memory",75,45,10,45,"No to treatment",90,1562.49500002014,0.222222222222222,1,"21",-3.06666666666667,-16.9333333333333,0.25534860964115,0.848351373001322,1.098043895819,0.99024018634454,1,1,1
"472","3FgQya4U","Short Term (Working) Memory",75,15,30,55,"Yes to treatment",77,3608.44000001089,2,1,"22",-33.0666666666667,3.06666666666667,0.25534860964115,0.848351373001322,1.098043895819,0.99024018634454,1,1,1
"473","3FgQya4U","Short Term (Working) Memory",75,35,40,25,"Yes to treatment",77,3330.17499998095,1.14285714285714,1,"23",-13.0666666666667,13.0666666666667,0.25534860964115,0.848351373001322,1.098043895819,0.99024018634454,1,1,1
"474","3FgQya4U","Short Term (Working) Memory",75,45,40,15,"No to treatment",90,1792.06000000704,0.888888888888889,1,"24",-3.06666666666667,13.0666666666667,0.25534860964115,0.848351373001322,1.098043895819,0.99024018634454,1,1,1
"475","3FgQya4U","Short Term (Working) Memory",75,5,55,40,"Yes to treatment",90,2124.46999998065,11,1,"25",-43.0666666666667,28.0666666666667,0.25534860964115,0.848351373001322,1.098043895819,0.99024018634454,1,1,1
"476","3FgQya4U","Short Term (Working) Memory",75,75,15,10,"No to treatment",90,1852.57499999716,0.2,1,"26",26.9333333333333,-11.9333333333333,0.25534860964115,0.848351373001322,1.098043895819,0.99024018634454,1,1,1
"477","3FgQya4U","Short Term (Working) Memory",75,40,40,20,"Yes to treatment",90,1893.00999999978,1,1,"27",-8.06666666666667,13.0666666666667,0.25534860964115,0.848351373001322,1.098043895819,0.99024018634454,1,1,1
"478","3FgQya4U","Short Term (Working) Memory",75,20,45,35,"Yes to treatment",90,1630.86499998462,2.25,1,"28",-28.0666666666667,18.0666666666667,0.25534860964115,0.848351373001322,1.098043895819,0.99024018634454,1,1,1
"479","3FgQya4U","Short Term (Working) Memory",75,85,5,10,"No to treatment",77,1305.67500001052,0.0588235294117647,1,"29",36.9333333333333,-21.9333333333333,0.25534860964115,0.848351373001322,1.098043895819,0.99024018634454,1,1,1
"480","3FgQya4U","Short Term (Working) Memory",75,35,10,55,"No to treatment",90,2036.0900000087,0.285714285714286,1,"30",-13.0666666666667,-16.9333333333333,0.25534860964115,0.848351373001322,1.098043895819,0.99024018634454,1,1,1
"481","3FgQya4U","Short Term (Working) Memory",75,50,45,5,"No to treatment",90,3026.67500000098,0.9,1,"31",1.93333333333333,18.0666666666667,0.25534860964115,0.848351373001322,1.098043895819,0.99024018634454,1,1,1
"482","3FgQya4U","Short Term (Working) Memory",75,5,75,20,"Yes to treatment",90,1544.82499998994,15,1,"32",-43.0666666666667,48.0666666666667,0.25534860964115,0.848351373001322,1.098043895819,0.99024018634454,1,1,1
"483","3FgQya4U","Short Term (Working) Memory",75,45,45,10,"Yes to treatment",77,5661.69000000809,1,1,"33",-3.06666666666667,18.0666666666667,0.25534860964115,0.848351373001322,1.098043895819,0.99024018634454,1,1,1
"484","3FgQya4U","Short Term (Working) Memory",75,50,40,10,"Yes to treatment",90,4119.9450000131,0.8,1,"34",1.93333333333333,13.0666666666667,0.25534860964115,0.848351373001322,1.098043895819,0.99024018634454,1,1,1
"485","3FgQya4U","Short Term (Working) Memory",75,80,10,10,"No to treatment",77,1396.13499998813,0.125,1,"35",31.9333333333333,-16.9333333333333,0.25534860964115,0.848351373001322,1.098043895819,0.99024018634454,1,1,1
"486","3FgQya4U","Short Term (Working) Memory",75,35,30,35,"Yes to treatment",77,1894.67999999761,0.857142857142857,1,"36",-13.0666666666667,3.06666666666667,0.25534860964115,0.848351373001322,1.098043895819,0.99024018634454,1,1,1
"487","3FgQya4U","Short Term (Working) Memory",75,25,20,55,"Yes to treatment",77,1344.29000000819,0.8,1,"37",-23.0666666666667,-6.93333333333333,0.25534860964115,0.848351373001322,1.098043895819,0.99024018634454,1,1,1
"488","3FgQya4U","Short Term (Working) Memory",75,30,65,5,"Yes to treatment",77,1484.07000000589,2.16666666666667,1,"38",-18.0666666666667,38.0666666666667,0.25534860964115,0.848351373001322,1.098043895819,0.99024018634454,1,1,1
"489","3FgQya4U","Short Term (Working) Memory",75,75,10,15,"No to treatment",77,1818.1700000132,0.133333333333333,1,"39",26.9333333333333,-16.9333333333333,0.25534860964115,0.848351373001322,1.098043895819,0.99024018634454,1,1,1
"490","3FgQya4U","Short Term (Working) Memory",75,90,5,5,"No to treatment",90,1112.44999998598,0.0555555555555556,1,"40",41.9333333333333,-21.9333333333333,0.25534860964115,0.848351373001322,1.098043895819,0.99024018634454,1,1,1
"491","3FgQya4U","Short Term (Working) Memory",75,45,5,50,"No to treatment",90,3380.42000000132,0.111111111111111,1,"41",-3.06666666666667,-21.9333333333333,0.25534860964115,0.848351373001322,1.098043895819,0.99024018634454,1,1,1
"492","3FgQya4U","Short Term (Working) Memory",75,55,35,10,"No to treatment",77,2321.57000000007,0.636363636363636,1,"42",6.93333333333333,8.06666666666667,0.25534860964115,0.848351373001322,1.098043895819,0.99024018634454,1,1,1
"493","3FgQya4U","Short Term (Working) Memory",75,25,20,55,"Yes to treatment",77,2291.62499998347,0.8,1,"43",-23.0666666666667,-6.93333333333333,0.25534860964115,0.848351373001322,1.098043895819,0.99024018634454,1,1,1
