"","user_id","condition","total_trials","risk","gain","no_effect","experimental_treatment_selected","key_press","rt","ratio","Extraversion","Agreeableness","Conscientiousness","Negative_Emotionality","Open_Mindedness","Harm","Fairness","Loyalty","Athority","Sancticy","PerspectiveTaking","Fantasy","EmpathicConcern","PersonalDistress","POWER","ACHIEVEMENT","HEDONISM","STIMULATION","SELF.DIRECTION","UNIVERSALISM","BENEVOLENCE","TRADITION","CONFORMITY","SECURITY","Lying","Assasination","Torture","Murder","Stealing","ForcedSterilization","SNS.total","SNS.ability","SNS.preference","republican","democrat","independent","conservative","liberal","sex","age_4","race_ethnicity","education","ReligionRaised","ReligionNow","Religiosity","Spirituality","AttendChurch","ReligiousActivity","meditation","RelationshipStatus","Income","Major","YearOfEducation","EmploymentStatus","Political_Party","HumanMind","Optimize","trial_index","risk_c","gain_c","Intercept","Risk_Beta","Gain_Beta","Interaction_Beta","lambda"
"1","1mvqe1Y3","Language (spoken)",75,70,5,25,"No to treatment",90,591.979999999225,0.0714285714285714,38,42,36,36,37,24,24,14,18,16,23,5,15,0,7,8,8,4,8,3,8,4,4,4,1,1,1,1,1,1,6,6,6,3,2,5,5,4,"1",47,2,4,1,7,1,1,2,2,1,5,"175000","Business Administration","18","Full time - business owner - construction services",2,0,0,"1",32.0666666666667,-25.0666666666667,3.08863965221038e-05,0.73725864153396,1.51818839693465,1.00310874061674,-0.485617360152763
"2","1mvqe1Y3","Language (spoken)",75,20,50,30,"Yes to treatment",77,792.695000000094,2.5,38,42,36,36,37,24,24,14,18,16,23,5,15,0,7,8,8,4,8,3,8,4,4,4,1,1,1,1,1,1,6,6,6,3,2,5,5,4,"1",47,2,4,1,7,1,1,2,2,1,5,"175000","Business Administration","18","Full time - business owner - construction services",2,0,0,"2",-17.9333333333333,19.9333333333333,3.08863965221038e-05,0.73725864153396,1.51818839693465,1.00310874061674,-0.485617360152763
"3","1mvqe1Y3","Language (spoken)",75,5,20,75,"No to treatment",90,664.955000000191,4,38,42,36,36,37,24,24,14,18,16,23,5,15,0,7,8,8,4,8,3,8,4,4,4,1,1,1,1,1,1,6,6,6,3,2,5,5,4,"1",47,2,4,1,7,1,1,2,2,1,5,"175000","Business Administration","18","Full time - business owner - construction services",2,0,0,"3",-32.9333333333333,-10.0666666666667,3.08863965221038e-05,0.73725864153396,1.51818839693465,1.00310874061674,-0.485617360152763
"4","1mvqe1Y3","Language (spoken)",75,5,25,70,"No to treatment",77,648.540000000125,5,38,42,36,36,37,24,24,14,18,16,23,5,15,0,7,8,8,4,8,3,8,4,4,4,1,1,1,1,1,1,6,6,6,3,2,5,5,4,"1",47,2,4,1,7,1,1,2,2,1,5,"175000","Business Administration","18","Full time - business owner - construction services",2,0,0,"4",-32.9333333333333,-5.06666666666667,3.08863965221038e-05,0.73725864153396,1.51818839693465,1.00310874061674,-0.485617360152763
"5","1mvqe1Y3","Language (spoken)",75,60,5,35,"No to treatment",77,779.140000000567,0.0833333333333333,38,42,36,36,37,24,24,14,18,16,23,5,15,0,7,8,8,4,8,3,8,4,4,4,1,1,1,1,1,1,6,6,6,3,2,5,5,4,"1",47,2,4,1,7,1,1,2,2,1,5,"175000","Business Administration","18","Full time - business owner - construction services",2,0,0,"5",22.0666666666667,-25.0666666666667,3.08863965221038e-05,0.73725864153396,1.51818839693465,1.00310874061674,-0.485617360152763
"6","1mvqe1Y3","Language (spoken)",75,65,20,15,"No to treatment",77,1406.01500000048,0.307692307692308,38,42,36,36,37,24,24,14,18,16,23,5,15,0,7,8,8,4,8,3,8,4,4,4,1,1,1,1,1,1,6,6,6,3,2,5,5,4,"1",47,2,4,1,7,1,1,2,2,1,5,"175000","Business Administration","18","Full time - business owner - construction services",2,0,0,"6",27.0666666666667,-10.0666666666667,3.08863965221038e-05,0.73725864153396,1.51818839693465,1.00310874061674,-0.485617360152763
"7","1mvqe1Y3","Language (spoken)",75,10,30,60,"Yes to treatment",77,1683.77499999951,3,38,42,36,36,37,24,24,14,18,16,23,5,15,0,7,8,8,4,8,3,8,4,4,4,1,1,1,1,1,1,6,6,6,3,2,5,5,4,"1",47,2,4,1,7,1,1,2,2,1,5,"175000","Business Administration","18","Full time - business owner - construction services",2,0,0,"7",-27.9333333333333,-0.0666666666666664,3.08863965221038e-05,0.73725864153396,1.51818839693465,1.00310874061674,-0.485617360152763
"8","1mvqe1Y3","Language (spoken)",75,65,10,25,"No to treatment",90,1049.91999999947,0.153846153846154,38,42,36,36,37,24,24,14,18,16,23,5,15,0,7,8,8,4,8,3,8,4,4,4,1,1,1,1,1,1,6,6,6,3,2,5,5,4,"1",47,2,4,1,7,1,1,2,2,1,5,"175000","Business Administration","18","Full time - business owner - construction services",2,0,0,"8",27.0666666666667,-20.0666666666667,3.08863965221038e-05,0.73725864153396,1.51818839693465,1.00310874061674,-0.485617360152763
"9","1mvqe1Y3","Language (spoken)",75,65,15,20,"No to treatment",77,638.939999998911,0.230769230769231,38,42,36,36,37,24,24,14,18,16,23,5,15,0,7,8,8,4,8,3,8,4,4,4,1,1,1,1,1,1,6,6,6,3,2,5,5,4,"1",47,2,4,1,7,1,1,2,2,1,5,"175000","Business Administration","18","Full time - business owner - construction services",2,0,0,"9",27.0666666666667,-15.0666666666667,3.08863965221038e-05,0.73725864153396,1.51818839693465,1.00310874061674,-0.485617360152763
"10","1mvqe1Y3","Language (spoken)",75,45,30,25,"No to treatment",77,748.074999999517,0.666666666666667,38,42,36,36,37,24,24,14,18,16,23,5,15,0,7,8,8,4,8,3,8,4,4,4,1,1,1,1,1,1,6,6,6,3,2,5,5,4,"1",47,2,4,1,7,1,1,2,2,1,5,"175000","Business Administration","18","Full time - business owner - construction services",2,0,0,"10",7.06666666666667,-0.0666666666666664,3.08863965221038e-05,0.73725864153396,1.51818839693465,1.00310874061674,-0.485617360152763
"11","1mvqe1Y3","Language (spoken)",75,25,70,5,"Yes to treatment",77,682.769999999437,2.8,38,42,36,36,37,24,24,14,18,16,23,5,15,0,7,8,8,4,8,3,8,4,4,4,1,1,1,1,1,1,6,6,6,3,2,5,5,4,"1",47,2,4,1,7,1,1,2,2,1,5,"175000","Business Administration","18","Full time - business owner - construction services",2,0,0,"11",-12.9333333333333,39.9333333333333,3.08863965221038e-05,0.73725864153396,1.51818839693465,1.00310874061674,-0.485617360152763
"12","1mvqe1Y3","Language (spoken)",75,50,20,30,"No to treatment",90,619.04499999946,0.4,38,42,36,36,37,24,24,14,18,16,23,5,15,0,7,8,8,4,8,3,8,4,4,4,1,1,1,1,1,1,6,6,6,3,2,5,5,4,"1",47,2,4,1,7,1,1,2,2,1,5,"175000","Business Administration","18","Full time - business owner - construction services",2,0,0,"12",12.0666666666667,-10.0666666666667,3.08863965221038e-05,0.73725864153396,1.51818839693465,1.00310874061674,-0.485617360152763
"13","1mvqe1Y3","Language (spoken)",75,25,50,25,"Yes to treatment",90,982.715000000084,2,38,42,36,36,37,24,24,14,18,16,23,5,15,0,7,8,8,4,8,3,8,4,4,4,1,1,1,1,1,1,6,6,6,3,2,5,5,4,"1",47,2,4,1,7,1,1,2,2,1,5,"175000","Business Administration","18","Full time - business owner - construction services",2,0,0,"13",-12.9333333333333,19.9333333333333,3.08863965221038e-05,0.73725864153396,1.51818839693465,1.00310874061674,-0.485617360152763
"14","1mvqe1Y3","Language (spoken)",75,35,30,35,"No to treatment",90,550.264999999839,0.857142857142857,38,42,36,36,37,24,24,14,18,16,23,5,15,0,7,8,8,4,8,3,8,4,4,4,1,1,1,1,1,1,6,6,6,3,2,5,5,4,"1",47,2,4,1,7,1,1,2,2,1,5,"175000","Business Administration","18","Full time - business owner - construction services",2,0,0,"14",-2.93333333333333,-0.0666666666666664,3.08863965221038e-05,0.73725864153396,1.51818839693465,1.00310874061674,-0.485617360152763
"15","1mvqe1Y3","Language (spoken)",75,70,20,10,"No to treatment",90,614.804999999265,0.285714285714286,38,42,36,36,37,24,24,14,18,16,23,5,15,0,7,8,8,4,8,3,8,4,4,4,1,1,1,1,1,1,6,6,6,3,2,5,5,4,"1",47,2,4,1,7,1,1,2,2,1,5,"175000","Business Administration","18","Full time - business owner - construction services",2,0,0,"15",32.0666666666667,-10.0666666666667,3.08863965221038e-05,0.73725864153396,1.51818839693465,1.00310874061674,-0.485617360152763
"16","1mvqe1Y3","Language (spoken)",75,55,25,20,"No to treatment",77,630.740000000515,0.454545454545455,38,42,36,36,37,24,24,14,18,16,23,5,15,0,7,8,8,4,8,3,8,4,4,4,1,1,1,1,1,1,6,6,6,3,2,5,5,4,"1",47,2,4,1,7,1,1,2,2,1,5,"175000","Business Administration","18","Full time - business owner - construction services",2,0,0,"16",17.0666666666667,-5.06666666666667,3.08863965221038e-05,0.73725864153396,1.51818839693465,1.00310874061674,-0.485617360152763
"17","1mvqe1Y3","Language (spoken)",75,15,65,20,"Yes to treatment",77,790.585000000632,4.33333333333333,38,42,36,36,37,24,24,14,18,16,23,5,15,0,7,8,8,4,8,3,8,4,4,4,1,1,1,1,1,1,6,6,6,3,2,5,5,4,"1",47,2,4,1,7,1,1,2,2,1,5,"175000","Business Administration","18","Full time - business owner - construction services",2,0,0,"17",-22.9333333333333,34.9333333333333,3.08863965221038e-05,0.73725864153396,1.51818839693465,1.00310874061674,-0.485617360152763
"18","1mvqe1Y3","Language (spoken)",75,30,10,60,"No to treatment",90,669.625000000451,0.333333333333333,38,42,36,36,37,24,24,14,18,16,23,5,15,0,7,8,8,4,8,3,8,4,4,4,1,1,1,1,1,1,6,6,6,3,2,5,5,4,"1",47,2,4,1,7,1,1,2,2,1,5,"175000","Business Administration","18","Full time - business owner - construction services",2,0,0,"18",-7.93333333333333,-20.0666666666667,3.08863965221038e-05,0.73725864153396,1.51818839693465,1.00310874061674,-0.485617360152763
"19","1mvqe1Y3","Language (spoken)",75,70,20,10,"No to treatment",90,1696.35500000004,0.285714285714286,38,42,36,36,37,24,24,14,18,16,23,5,15,0,7,8,8,4,8,3,8,4,4,4,1,1,1,1,1,1,6,6,6,3,2,5,5,4,"1",47,2,4,1,7,1,1,2,2,1,5,"175000","Business Administration","18","Full time - business owner - construction services",2,0,0,"19",32.0666666666667,-10.0666666666667,3.08863965221038e-05,0.73725864153396,1.51818839693465,1.00310874061674,-0.485617360152763
"20","1mvqe1Y3","Language (spoken)",75,40,40,20,"No to treatment",77,881.929999999527,1,38,42,36,36,37,24,24,14,18,16,23,5,15,0,7,8,8,4,8,3,8,4,4,4,1,1,1,1,1,1,6,6,6,3,2,5,5,4,"1",47,2,4,1,7,1,1,2,2,1,5,"175000","Business Administration","18","Full time - business owner - construction services",2,0,0,"20",2.06666666666667,9.93333333333333,3.08863965221038e-05,0.73725864153396,1.51818839693465,1.00310874061674,-0.485617360152763
"21","1mvqe1Y3","Language (spoken)",75,30,50,20,"No to treatment",77,1361.82000000009,1.66666666666667,38,42,36,36,37,24,24,14,18,16,23,5,15,0,7,8,8,4,8,3,8,4,4,4,1,1,1,1,1,1,6,6,6,3,2,5,5,4,"1",47,2,4,1,7,1,1,2,2,1,5,"175000","Business Administration","18","Full time - business owner - construction services",2,0,0,"21",-7.93333333333333,19.9333333333333,3.08863965221038e-05,0.73725864153396,1.51818839693465,1.00310874061674,-0.485617360152763
"22","1mvqe1Y3","Language (spoken)",75,60,20,20,"No to treatment",77,662.524999999732,0.333333333333333,38,42,36,36,37,24,24,14,18,16,23,5,15,0,7,8,8,4,8,3,8,4,4,4,1,1,1,1,1,1,6,6,6,3,2,5,5,4,"1",47,2,4,1,7,1,1,2,2,1,5,"175000","Business Administration","18","Full time - business owner - construction services",2,0,0,"22",22.0666666666667,-10.0666666666667,3.08863965221038e-05,0.73725864153396,1.51818839693465,1.00310874061674,-0.485617360152763
"23","1mvqe1Y3","Language (spoken)",75,15,50,35,"Yes to treatment",77,1016.28499999971,3.33333333333333,38,42,36,36,37,24,24,14,18,16,23,5,15,0,7,8,8,4,8,3,8,4,4,4,1,1,1,1,1,1,6,6,6,3,2,5,5,4,"1",47,2,4,1,7,1,1,2,2,1,5,"175000","Business Administration","18","Full time - business owner - construction services",2,0,0,"23",-22.9333333333333,19.9333333333333,3.08863965221038e-05,0.73725864153396,1.51818839693465,1.00310874061674,-0.485617360152763
"24","1mvqe1Y3","Language (spoken)",75,30,25,45,"No to treatment",90,606.300000001298,0.833333333333333,38,42,36,36,37,24,24,14,18,16,23,5,15,0,7,8,8,4,8,3,8,4,4,4,1,1,1,1,1,1,6,6,6,3,2,5,5,4,"1",47,2,4,1,7,1,1,2,2,1,5,"175000","Business Administration","18","Full time - business owner - construction services",2,0,0,"24",-7.93333333333333,-5.06666666666667,3.08863965221038e-05,0.73725864153396,1.51818839693465,1.00310874061674,-0.485617360152763
"25","1mvqe1Y3","Language (spoken)",75,40,40,20,"No to treatment",77,948.674999999639,1,38,42,36,36,37,24,24,14,18,16,23,5,15,0,7,8,8,4,8,3,8,4,4,4,1,1,1,1,1,1,6,6,6,3,2,5,5,4,"1",47,2,4,1,7,1,1,2,2,1,5,"175000","Business Administration","18","Full time - business owner - construction services",2,0,0,"25",2.06666666666667,9.93333333333333,3.08863965221038e-05,0.73725864153396,1.51818839693465,1.00310874061674,-0.485617360152763
"26","1mvqe1Y3","Language (spoken)",75,45,5,50,"No to treatment",77,4201.45500000035,0.111111111111111,38,42,36,36,37,24,24,14,18,16,23,5,15,0,7,8,8,4,8,3,8,4,4,4,1,1,1,1,1,1,6,6,6,3,2,5,5,4,"1",47,2,4,1,7,1,1,2,2,1,5,"175000","Business Administration","18","Full time - business owner - construction services",2,0,0,"26",7.06666666666667,-25.0666666666667,3.08863965221038e-05,0.73725864153396,1.51818839693465,1.00310874061674,-0.485617360152763
"27","1mvqe1Y3","Language (spoken)",75,10,30,60,"No to treatment",90,532.044999999925,3,38,42,36,36,37,24,24,14,18,16,23,5,15,0,7,8,8,4,8,3,8,4,4,4,1,1,1,1,1,1,6,6,6,3,2,5,5,4,"1",47,2,4,1,7,1,1,2,2,1,5,"175000","Business Administration","18","Full time - business owner - construction services",2,0,0,"27",-27.9333333333333,-0.0666666666666664,3.08863965221038e-05,0.73725864153396,1.51818839693465,1.00310874061674,-0.485617360152763
"28","1mvqe1Y3","Language (spoken)",75,5,5,90,"No to treatment",90,778.275000000576,1,38,42,36,36,37,24,24,14,18,16,23,5,15,0,7,8,8,4,8,3,8,4,4,4,1,1,1,1,1,1,6,6,6,3,2,5,5,4,"1",47,2,4,1,7,1,1,2,2,1,5,"175000","Business Administration","18","Full time - business owner - construction services",2,0,0,"28",-32.9333333333333,-25.0666666666667,3.08863965221038e-05,0.73725864153396,1.51818839693465,1.00310874061674,-0.485617360152763
"29","1mvqe1Y3","Language (spoken)",75,55,25,20,"No to treatment",77,659.260000000359,0.454545454545455,38,42,36,36,37,24,24,14,18,16,23,5,15,0,7,8,8,4,8,3,8,4,4,4,1,1,1,1,1,1,6,6,6,3,2,5,5,4,"1",47,2,4,1,7,1,1,2,2,1,5,"175000","Business Administration","18","Full time - business owner - construction services",2,0,0,"29",17.0666666666667,-5.06666666666667,3.08863965221038e-05,0.73725864153396,1.51818839693465,1.00310874061674,-0.485617360152763
"30","1mvqe1Y3","Language (spoken)",75,60,30,10,"No to treatment",90,598.434999999881,0.5,38,42,36,36,37,24,24,14,18,16,23,5,15,0,7,8,8,4,8,3,8,4,4,4,1,1,1,1,1,1,6,6,6,3,2,5,5,4,"1",47,2,4,1,7,1,1,2,2,1,5,"175000","Business Administration","18","Full time - business owner - construction services",2,0,0,"30",22.0666666666667,-0.0666666666666664,3.08863965221038e-05,0.73725864153396,1.51818839693465,1.00310874061674,-0.485617360152763
"31","1mvqe1Y3","Language (spoken)",75,45,15,40,"No to treatment",90,577.774999999732,0.333333333333333,38,42,36,36,37,24,24,14,18,16,23,5,15,0,7,8,8,4,8,3,8,4,4,4,1,1,1,1,1,1,6,6,6,3,2,5,5,4,"1",47,2,4,1,7,1,1,2,2,1,5,"175000","Business Administration","18","Full time - business owner - construction services",2,0,0,"31",7.06666666666667,-15.0666666666667,3.08863965221038e-05,0.73725864153396,1.51818839693465,1.00310874061674,-0.485617360152763
"32","1mvqe1Y3","Language (spoken)",75,10,55,35,"Yes to treatment",77,560.494999999719,5.5,38,42,36,36,37,24,24,14,18,16,23,5,15,0,7,8,8,4,8,3,8,4,4,4,1,1,1,1,1,1,6,6,6,3,2,5,5,4,"1",47,2,4,1,7,1,1,2,2,1,5,"175000","Business Administration","18","Full time - business owner - construction services",2,0,0,"32",-27.9333333333333,24.9333333333333,3.08863965221038e-05,0.73725864153396,1.51818839693465,1.00310874061674,-0.485617360152763
"33","1mvqe1Y3","Language (spoken)",75,5,90,5,"Yes to treatment",90,910.514999999577,18,38,42,36,36,37,24,24,14,18,16,23,5,15,0,7,8,8,4,8,3,8,4,4,4,1,1,1,1,1,1,6,6,6,3,2,5,5,4,"1",47,2,4,1,7,1,1,2,2,1,5,"175000","Business Administration","18","Full time - business owner - construction services",2,0,0,"33",-32.9333333333333,59.9333333333333,3.08863965221038e-05,0.73725864153396,1.51818839693465,1.00310874061674,-0.485617360152763
"34","1mvqe1Y3","Language (spoken)",75,45,15,40,"No to treatment",90,726.254999999597,0.333333333333333,38,42,36,36,37,24,24,14,18,16,23,5,15,0,7,8,8,4,8,3,8,4,4,4,1,1,1,1,1,1,6,6,6,3,2,5,5,4,"1",47,2,4,1,7,1,1,2,2,1,5,"175000","Business Administration","18","Full time - business owner - construction services",2,0,0,"34",7.06666666666667,-15.0666666666667,3.08863965221038e-05,0.73725864153396,1.51818839693465,1.00310874061674,-0.485617360152763
"35","1mvqe1Y3","Language (spoken)",75,15,35,50,"No to treatment",90,535.630000000296,2.33333333333333,38,42,36,36,37,24,24,14,18,16,23,5,15,0,7,8,8,4,8,3,8,4,4,4,1,1,1,1,1,1,6,6,6,3,2,5,5,4,"1",47,2,4,1,7,1,1,2,2,1,5,"175000","Business Administration","18","Full time - business owner - construction services",2,0,0,"35",-22.9333333333333,4.93333333333333,3.08863965221038e-05,0.73725864153396,1.51818839693465,1.00310874061674,-0.485617360152763
"36","1mvqe1Y3","Language (spoken)",75,15,65,20,"Yes to treatment",77,658.170000000609,4.33333333333333,38,42,36,36,37,24,24,14,18,16,23,5,15,0,7,8,8,4,8,3,8,4,4,4,1,1,1,1,1,1,6,6,6,3,2,5,5,4,"1",47,2,4,1,7,1,1,2,2,1,5,"175000","Business Administration","18","Full time - business owner - construction services",2,0,0,"36",-22.9333333333333,34.9333333333333,3.08863965221038e-05,0.73725864153396,1.51818839693465,1.00310874061674,-0.485617360152763
"37","1mvqe1Y3","Language (spoken)",75,60,25,15,"No to treatment",90,815.109999999549,0.416666666666667,38,42,36,36,37,24,24,14,18,16,23,5,15,0,7,8,8,4,8,3,8,4,4,4,1,1,1,1,1,1,6,6,6,3,2,5,5,4,"1",47,2,4,1,7,1,1,2,2,1,5,"175000","Business Administration","18","Full time - business owner - construction services",2,0,0,"37",22.0666666666667,-5.06666666666667,3.08863965221038e-05,0.73725864153396,1.51818839693465,1.00310874061674,-0.485617360152763
"38","1mvqe1Y3","Language (spoken)",75,10,40,50,"No to treatment",90,681.794999998616,4,38,42,36,36,37,24,24,14,18,16,23,5,15,0,7,8,8,4,8,3,8,4,4,4,1,1,1,1,1,1,6,6,6,3,2,5,5,4,"1",47,2,4,1,7,1,1,2,2,1,5,"175000","Business Administration","18","Full time - business owner - construction services",2,0,0,"38",-27.9333333333333,9.93333333333333,3.08863965221038e-05,0.73725864153396,1.51818839693465,1.00310874061674,-0.485617360152763
"39","1mvqe1Y3","Language (spoken)",75,60,30,10,"No to treatment",90,889.57499999924,0.5,38,42,36,36,37,24,24,14,18,16,23,5,15,0,7,8,8,4,8,3,8,4,4,4,1,1,1,1,1,1,6,6,6,3,2,5,5,4,"1",47,2,4,1,7,1,1,2,2,1,5,"175000","Business Administration","18","Full time - business owner - construction services",2,0,0,"39",22.0666666666667,-0.0666666666666664,3.08863965221038e-05,0.73725864153396,1.51818839693465,1.00310874061674,-0.485617360152763
"40","1mvqe1Y3","Language (spoken)",75,60,15,25,"No to treatment",90,562.979999998788,0.25,38,42,36,36,37,24,24,14,18,16,23,5,15,0,7,8,8,4,8,3,8,4,4,4,1,1,1,1,1,1,6,6,6,3,2,5,5,4,"1",47,2,4,1,7,1,1,2,2,1,5,"175000","Business Administration","18","Full time - business owner - construction services",2,0,0,"40",22.0666666666667,-15.0666666666667,3.08863965221038e-05,0.73725864153396,1.51818839693465,1.00310874061674,-0.485617360152763
"41","1mvqe1Y3","Language (spoken)",75,50,30,20,"No to treatment",77,1704.56000000013,0.6,38,42,36,36,37,24,24,14,18,16,23,5,15,0,7,8,8,4,8,3,8,4,4,4,1,1,1,1,1,1,6,6,6,3,2,5,5,4,"1",47,2,4,1,7,1,1,2,2,1,5,"175000","Business Administration","18","Full time - business owner - construction services",2,0,0,"41",12.0666666666667,-0.0666666666666664,3.08863965221038e-05,0.73725864153396,1.51818839693465,1.00310874061674,-0.485617360152763
"42","1mvqe1Y3","Language (spoken)",75,70,25,5,"No to treatment",90,662.089999999822,0.357142857142857,38,42,36,36,37,24,24,14,18,16,23,5,15,0,7,8,8,4,8,3,8,4,4,4,1,1,1,1,1,1,6,6,6,3,2,5,5,4,"1",47,2,4,1,7,1,1,2,2,1,5,"175000","Business Administration","18","Full time - business owner - construction services",2,0,0,"42",32.0666666666667,-5.06666666666667,3.08863965221038e-05,0.73725864153396,1.51818839693465,1.00310874061674,-0.485617360152763
"43","1mvqe1Y3","Language (spoken)",75,5,5,90,"No to treatment",77,604.080000000977,1,38,42,36,36,37,24,24,14,18,16,23,5,15,0,7,8,8,4,8,3,8,4,4,4,1,1,1,1,1,1,6,6,6,3,2,5,5,4,"1",47,2,4,1,7,1,1,2,2,1,5,"175000","Business Administration","18","Full time - business owner - construction services",2,0,0,"43",-32.9333333333333,-25.0666666666667,3.08863965221038e-05,0.73725864153396,1.51818839693465,1.00310874061674,-0.485617360152763
"44","1mvqe1Y3","Language (spoken)",75,25,50,25,"Yes to treatment",90,1174.3349999997,2,38,42,36,36,37,24,24,14,18,16,23,5,15,0,7,8,8,4,8,3,8,4,4,4,1,1,1,1,1,1,6,6,6,3,2,5,5,4,"1",47,2,4,1,7,1,1,2,2,1,5,"175000","Business Administration","18","Full time - business owner - construction services",2,0,0,"44",-12.9333333333333,19.9333333333333,3.08863965221038e-05,0.73725864153396,1.51818839693465,1.00310874061674,-0.485617360152763
"45","1mvqe1Y3","Language (spoken)",75,60,35,5,"No to treatment",77,857.845000000452,0.583333333333333,38,42,36,36,37,24,24,14,18,16,23,5,15,0,7,8,8,4,8,3,8,4,4,4,1,1,1,1,1,1,6,6,6,3,2,5,5,4,"1",47,2,4,1,7,1,1,2,2,1,5,"175000","Business Administration","18","Full time - business owner - construction services",2,0,0,"45",22.0666666666667,4.93333333333333,3.08863965221038e-05,0.73725864153396,1.51818839693465,1.00310874061674,-0.485617360152763
"46","1mvqe1Y3","Language (spoken)",75,70,25,5,"No to treatment",77,708.000000000538,0.357142857142857,38,42,36,36,37,24,24,14,18,16,23,5,15,0,7,8,8,4,8,3,8,4,4,4,1,1,1,1,1,1,6,6,6,3,2,5,5,4,"1",47,2,4,1,7,1,1,2,2,1,5,"175000","Business Administration","18","Full time - business owner - construction services",2,0,0,"46",32.0666666666667,-5.06666666666667,3.08863965221038e-05,0.73725864153396,1.51818839693465,1.00310874061674,-0.485617360152763
"47","1mvqe1Y3","Language (spoken)",75,50,10,40,"No to treatment",90,790.670000000318,0.2,38,42,36,36,37,24,24,14,18,16,23,5,15,0,7,8,8,4,8,3,8,4,4,4,1,1,1,1,1,1,6,6,6,3,2,5,5,4,"1",47,2,4,1,7,1,1,2,2,1,5,"175000","Business Administration","18","Full time - business owner - construction services",2,0,0,"47",12.0666666666667,-20.0666666666667,3.08863965221038e-05,0.73725864153396,1.51818839693465,1.00310874061674,-0.485617360152763
"48","1mvqe1Y3","Language (spoken)",75,10,50,40,"Yes to treatment",77,748.224999999366,5,38,42,36,36,37,24,24,14,18,16,23,5,15,0,7,8,8,4,8,3,8,4,4,4,1,1,1,1,1,1,6,6,6,3,2,5,5,4,"1",47,2,4,1,7,1,1,2,2,1,5,"175000","Business Administration","18","Full time - business owner - construction services",2,0,0,"48",-27.9333333333333,19.9333333333333,3.08863965221038e-05,0.73725864153396,1.51818839693465,1.00310874061674,-0.485617360152763
"49","1mvqe1Y3","Language (spoken)",75,20,70,10,"Yes to treatment",90,1073.31500000146,3.5,38,42,36,36,37,24,24,14,18,16,23,5,15,0,7,8,8,4,8,3,8,4,4,4,1,1,1,1,1,1,6,6,6,3,2,5,5,4,"1",47,2,4,1,7,1,1,2,2,1,5,"175000","Business Administration","18","Full time - business owner - construction services",2,0,0,"49",-17.9333333333333,39.9333333333333,3.08863965221038e-05,0.73725864153396,1.51818839693465,1.00310874061674,-0.485617360152763
"50","1mvqe1Y3","Language (spoken)",75,5,10,85,"No to treatment",77,668.584999999439,2,38,42,36,36,37,24,24,14,18,16,23,5,15,0,7,8,8,4,8,3,8,4,4,4,1,1,1,1,1,1,6,6,6,3,2,5,5,4,"1",47,2,4,1,7,1,1,2,2,1,5,"175000","Business Administration","18","Full time - business owner - construction services",2,0,0,"50",-32.9333333333333,-20.0666666666667,3.08863965221038e-05,0.73725864153396,1.51818839693465,1.00310874061674,-0.485617360152763
"51","1mvqe1Y3","Language (spoken)",75,25,25,50,"No to treatment",90,662.110000001121,1,38,42,36,36,37,24,24,14,18,16,23,5,15,0,7,8,8,4,8,3,8,4,4,4,1,1,1,1,1,1,6,6,6,3,2,5,5,4,"1",47,2,4,1,7,1,1,2,2,1,5,"175000","Business Administration","18","Full time - business owner - construction services",2,0,0,"51",-12.9333333333333,-5.06666666666667,3.08863965221038e-05,0.73725864153396,1.51818839693465,1.00310874061674,-0.485617360152763
"52","1mvqe1Y3","Language (spoken)",75,55,20,25,"No to treatment",90,876.740000001533,0.363636363636364,38,42,36,36,37,24,24,14,18,16,23,5,15,0,7,8,8,4,8,3,8,4,4,4,1,1,1,1,1,1,6,6,6,3,2,5,5,4,"1",47,2,4,1,7,1,1,2,2,1,5,"175000","Business Administration","18","Full time - business owner - construction services",2,0,0,"52",17.0666666666667,-10.0666666666667,3.08863965221038e-05,0.73725864153396,1.51818839693465,1.00310874061674,-0.485617360152763
"53","1mvqe1Y3","Language (spoken)",75,50,15,35,"No to treatment",77,589.224999999715,0.3,38,42,36,36,37,24,24,14,18,16,23,5,15,0,7,8,8,4,8,3,8,4,4,4,1,1,1,1,1,1,6,6,6,3,2,5,5,4,"1",47,2,4,1,7,1,1,2,2,1,5,"175000","Business Administration","18","Full time - business owner - construction services",2,0,0,"53",12.0666666666667,-15.0666666666667,3.08863965221038e-05,0.73725864153396,1.51818839693465,1.00310874061674,-0.485617360152763
"54","1mvqe1Y3","Language (spoken)",75,20,50,30,"Yes to treatment",90,1056.15500000023,2.5,38,42,36,36,37,24,24,14,18,16,23,5,15,0,7,8,8,4,8,3,8,4,4,4,1,1,1,1,1,1,6,6,6,3,2,5,5,4,"1",47,2,4,1,7,1,1,2,2,1,5,"175000","Business Administration","18","Full time - business owner - construction services",2,0,0,"54",-17.9333333333333,19.9333333333333,3.08863965221038e-05,0.73725864153396,1.51818839693465,1.00310874061674,-0.485617360152763
"55","1mvqe1Y3","Language (spoken)",75,60,15,25,"No to treatment",77,861.60000000018,0.25,38,42,36,36,37,24,24,14,18,16,23,5,15,0,7,8,8,4,8,3,8,4,4,4,1,1,1,1,1,1,6,6,6,3,2,5,5,4,"1",47,2,4,1,7,1,1,2,2,1,5,"175000","Business Administration","18","Full time - business owner - construction services",2,0,0,"55",22.0666666666667,-15.0666666666667,3.08863965221038e-05,0.73725864153396,1.51818839693465,1.00310874061674,-0.485617360152763
"56","1mvqe1Y3","Language (spoken)",75,65,5,30,"No to treatment",90,834.820000000036,0.0769230769230769,38,42,36,36,37,24,24,14,18,16,23,5,15,0,7,8,8,4,8,3,8,4,4,4,1,1,1,1,1,1,6,6,6,3,2,5,5,4,"1",47,2,4,1,7,1,1,2,2,1,5,"175000","Business Administration","18","Full time - business owner - construction services",2,0,0,"56",27.0666666666667,-25.0666666666667,3.08863965221038e-05,0.73725864153396,1.51818839693465,1.00310874061674,-0.485617360152763
"57","1mvqe1Y3","Language (spoken)",75,50,10,40,"No to treatment",77,690.205000000773,0.2,38,42,36,36,37,24,24,14,18,16,23,5,15,0,7,8,8,4,8,3,8,4,4,4,1,1,1,1,1,1,6,6,6,3,2,5,5,4,"1",47,2,4,1,7,1,1,2,2,1,5,"175000","Business Administration","18","Full time - business owner - construction services",2,0,0,"57",12.0666666666667,-20.0666666666667,3.08863965221038e-05,0.73725864153396,1.51818839693465,1.00310874061674,-0.485617360152763
"58","1mvqe1Y3","Language (spoken)",75,25,55,20,"Yes to treatment",77,1674.53999999998,2.2,38,42,36,36,37,24,24,14,18,16,23,5,15,0,7,8,8,4,8,3,8,4,4,4,1,1,1,1,1,1,6,6,6,3,2,5,5,4,"1",47,2,4,1,7,1,1,2,2,1,5,"175000","Business Administration","18","Full time - business owner - construction services",2,0,0,"58",-12.9333333333333,24.9333333333333,3.08863965221038e-05,0.73725864153396,1.51818839693465,1.00310874061674,-0.485617360152763
"59","1mvqe1Y3","Language (spoken)",75,45,50,5,"No to treatment",77,1333.52500000002,1.11111111111111,38,42,36,36,37,24,24,14,18,16,23,5,15,0,7,8,8,4,8,3,8,4,4,4,1,1,1,1,1,1,6,6,6,3,2,5,5,4,"1",47,2,4,1,7,1,1,2,2,1,5,"175000","Business Administration","18","Full time - business owner - construction services",2,0,0,"59",7.06666666666667,19.9333333333333,3.08863965221038e-05,0.73725864153396,1.51818839693465,1.00310874061674,-0.485617360152763
"60","1mvqe1Y3","Language (spoken)",75,5,55,40,"Yes to treatment",90,746.460000000283,11,38,42,36,36,37,24,24,14,18,16,23,5,15,0,7,8,8,4,8,3,8,4,4,4,1,1,1,1,1,1,6,6,6,3,2,5,5,4,"1",47,2,4,1,7,1,1,2,2,1,5,"175000","Business Administration","18","Full time - business owner - construction services",2,0,0,"60",-32.9333333333333,24.9333333333333,3.08863965221038e-05,0.73725864153396,1.51818839693465,1.00310874061674,-0.485617360152763
"61","1mvqe1Y3","Language (spoken)",75,10,45,45,"Yes to treatment",77,1917.1699999988,4.5,38,42,36,36,37,24,24,14,18,16,23,5,15,0,7,8,8,4,8,3,8,4,4,4,1,1,1,1,1,1,6,6,6,3,2,5,5,4,"1",47,2,4,1,7,1,1,2,2,1,5,"175000","Business Administration","18","Full time - business owner - construction services",2,0,0,"61",-27.9333333333333,14.9333333333333,3.08863965221038e-05,0.73725864153396,1.51818839693465,1.00310874061674,-0.485617360152763
"62","1mvqe1Y3","Language (spoken)",75,20,55,25,"Yes to treatment",90,1062.60000000114,2.75,38,42,36,36,37,24,24,14,18,16,23,5,15,0,7,8,8,4,8,3,8,4,4,4,1,1,1,1,1,1,6,6,6,3,2,5,5,4,"1",47,2,4,1,7,1,1,2,2,1,5,"175000","Business Administration","18","Full time - business owner - construction services",2,0,0,"62",-17.9333333333333,24.9333333333333,3.08863965221038e-05,0.73725864153396,1.51818839693465,1.00310874061674,-0.485617360152763
"63","1mvqe1Y3","Language (spoken)",75,10,25,65,"No to treatment",77,2948.07500000024,2.5,38,42,36,36,37,24,24,14,18,16,23,5,15,0,7,8,8,4,8,3,8,4,4,4,1,1,1,1,1,1,6,6,6,3,2,5,5,4,"1",47,2,4,1,7,1,1,2,2,1,5,"175000","Business Administration","18","Full time - business owner - construction services",2,0,0,"63",-27.9333333333333,-5.06666666666667,3.08863965221038e-05,0.73725864153396,1.51818839693465,1.00310874061674,-0.485617360152763
"64","1mvqe1Y3","Language (spoken)",75,20,15,65,"No to treatment",77,917.910000000149,0.75,38,42,36,36,37,24,24,14,18,16,23,5,15,0,7,8,8,4,8,3,8,4,4,4,1,1,1,1,1,1,6,6,6,3,2,5,5,4,"1",47,2,4,1,7,1,1,2,2,1,5,"175000","Business Administration","18","Full time - business owner - construction services",2,0,0,"64",-17.9333333333333,-15.0666666666667,3.08863965221038e-05,0.73725864153396,1.51818839693465,1.00310874061674,-0.485617360152763
"65","1mvqe1Y3","Language (spoken)",75,50,20,30,"No to treatment",90,533.854999999661,0.4,38,42,36,36,37,24,24,14,18,16,23,5,15,0,7,8,8,4,8,3,8,4,4,4,1,1,1,1,1,1,6,6,6,3,2,5,5,4,"1",47,2,4,1,7,1,1,2,2,1,5,"175000","Business Administration","18","Full time - business owner - construction services",2,0,0,"65",12.0666666666667,-10.0666666666667,3.08863965221038e-05,0.73725864153396,1.51818839693465,1.00310874061674,-0.485617360152763
"66","1mvqe1Y3","Language (spoken)",75,35,20,45,"No to treatment",77,631.17999999848,0.571428571428571,38,42,36,36,37,24,24,14,18,16,23,5,15,0,7,8,8,4,8,3,8,4,4,4,1,1,1,1,1,1,6,6,6,3,2,5,5,4,"1",47,2,4,1,7,1,1,2,2,1,5,"175000","Business Administration","18","Full time - business owner - construction services",2,0,0,"66",-2.93333333333333,-10.0666666666667,3.08863965221038e-05,0.73725864153396,1.51818839693465,1.00310874061674,-0.485617360152763
"67","1mvqe1Y3","Language (spoken)",75,50,30,20,"No to treatment",90,661.415000000503,0.6,38,42,36,36,37,24,24,14,18,16,23,5,15,0,7,8,8,4,8,3,8,4,4,4,1,1,1,1,1,1,6,6,6,3,2,5,5,4,"1",47,2,4,1,7,1,1,2,2,1,5,"175000","Business Administration","18","Full time - business owner - construction services",2,0,0,"67",12.0666666666667,-0.0666666666666664,3.08863965221038e-05,0.73725864153396,1.51818839693465,1.00310874061674,-0.485617360152763
"68","1mvqe1Y3","Language (spoken)",75,55,30,15,"No to treatment",90,536.740000001359,0.545454545454545,38,42,36,36,37,24,24,14,18,16,23,5,15,0,7,8,8,4,8,3,8,4,4,4,1,1,1,1,1,1,6,6,6,3,2,5,5,4,"1",47,2,4,1,7,1,1,2,2,1,5,"175000","Business Administration","18","Full time - business owner - construction services",2,0,0,"68",17.0666666666667,-0.0666666666666664,3.08863965221038e-05,0.73725864153396,1.51818839693465,1.00310874061674,-0.485617360152763
"69","1mvqe1Y3","Language (spoken)",75,65,25,10,"No to treatment",77,969.215000000986,0.384615384615385,38,42,36,36,37,24,24,14,18,16,23,5,15,0,7,8,8,4,8,3,8,4,4,4,1,1,1,1,1,1,6,6,6,3,2,5,5,4,"1",47,2,4,1,7,1,1,2,2,1,5,"175000","Business Administration","18","Full time - business owner - construction services",2,0,0,"69",27.0666666666667,-5.06666666666667,3.08863965221038e-05,0.73725864153396,1.51818839693465,1.00310874061674,-0.485617360152763
"70","1mvqe1Y3","Language (spoken)",75,20,25,55,"No to treatment",90,897.970000000001,1.25,38,42,36,36,37,24,24,14,18,16,23,5,15,0,7,8,8,4,8,3,8,4,4,4,1,1,1,1,1,1,6,6,6,3,2,5,5,4,"1",47,2,4,1,7,1,1,2,2,1,5,"175000","Business Administration","18","Full time - business owner - construction services",2,0,0,"70",-17.9333333333333,-5.06666666666667,3.08863965221038e-05,0.73725864153396,1.51818839693465,1.00310874061674,-0.485617360152763
"71","1mvqe1Y3","Language (spoken)",75,65,5,30,"No to treatment",90,730.765000000247,0.0769230769230769,38,42,36,36,37,24,24,14,18,16,23,5,15,0,7,8,8,4,8,3,8,4,4,4,1,1,1,1,1,1,6,6,6,3,2,5,5,4,"1",47,2,4,1,7,1,1,2,2,1,5,"175000","Business Administration","18","Full time - business owner - construction services",2,0,0,"71",27.0666666666667,-25.0666666666667,3.08863965221038e-05,0.73725864153396,1.51818839693465,1.00310874061674,-0.485617360152763
"72","1mvqe1Y3","Language (spoken)",75,45,35,20,"No to treatment",77,1247.56999999954,0.777777777777778,38,42,36,36,37,24,24,14,18,16,23,5,15,0,7,8,8,4,8,3,8,4,4,4,1,1,1,1,1,1,6,6,6,3,2,5,5,4,"1",47,2,4,1,7,1,1,2,2,1,5,"175000","Business Administration","18","Full time - business owner - construction services",2,0,0,"72",7.06666666666667,4.93333333333333,3.08863965221038e-05,0.73725864153396,1.51818839693465,1.00310874061674,-0.485617360152763
"73","1mvqe1Y3","Language (spoken)",75,60,35,5,"No to treatment",90,891.944999999396,0.583333333333333,38,42,36,36,37,24,24,14,18,16,23,5,15,0,7,8,8,4,8,3,8,4,4,4,1,1,1,1,1,1,6,6,6,3,2,5,5,4,"1",47,2,4,1,7,1,1,2,2,1,5,"175000","Business Administration","18","Full time - business owner - construction services",2,0,0,"73",22.0666666666667,4.93333333333333,3.08863965221038e-05,0.73725864153396,1.51818839693465,1.00310874061674,-0.485617360152763
"74","1mvqe1Y3","Language (spoken)",75,5,40,55,"Yes to treatment",77,1455.899999999,8,38,42,36,36,37,24,24,14,18,16,23,5,15,0,7,8,8,4,8,3,8,4,4,4,1,1,1,1,1,1,6,6,6,3,2,5,5,4,"1",47,2,4,1,7,1,1,2,2,1,5,"175000","Business Administration","18","Full time - business owner - construction services",2,0,0,"74",-32.9333333333333,9.93333333333333,3.08863965221038e-05,0.73725864153396,1.51818839693465,1.00310874061674,-0.485617360152763
"75","1mvqe1Y3","Language (spoken)",75,70,15,15,"No to treatment",77,805.774999998888,0.214285714285714,38,42,36,36,37,24,24,14,18,16,23,5,15,0,7,8,8,4,8,3,8,4,4,4,1,1,1,1,1,1,6,6,6,3,2,5,5,4,"1",47,2,4,1,7,1,1,2,2,1,5,"175000","Business Administration","18","Full time - business owner - construction services",2,0,0,"75",32.0666666666667,-15.0666666666667,3.08863965221038e-05,0.73725864153396,1.51818839693465,1.00310874061674,-0.485617360152763
"76","2n0R4z0W","Motor Function",75,30,60,10,"Yes to treatment",90,2190.43000001693,2,40,38,43,38,32,19,23,17,23,19,6,20,24,24,0,4,2,6,4,8,8,8,8,8,2,1,1,1,2,2,5.5,5.25,5.75,1,1,1,7,1,"2",45,2,3,1,1,3,3,4,6,1,3,"120000","Applied Behavioral Science","16","homemaker full time parent",2,1,0,"1",-8.8,29.8666666666667,2.03692511159862,1.02693631346264,1.03610048045102,1.00095326109366,-0.991155136821877
"77","2n0R4z0W","Motor Function",75,45,25,30,"Yes to treatment",90,2904.64999998221,0.555555555555556,40,38,43,38,32,19,23,17,23,19,6,20,24,24,0,4,2,6,4,8,8,8,8,8,2,1,1,1,2,2,5.5,5.25,5.75,1,1,1,7,1,"2",45,2,3,1,1,3,3,4,6,1,3,"120000","Applied Behavioral Science","16","homemaker full time parent",2,1,0,"2",6.2,-5.13333333333333,2.03692511159862,1.02693631346264,1.03610048045102,1.00095326109366,-0.991155136821877
"78","2n0R4z0W","Motor Function",75,45,50,5,"Yes to treatment",90,4983.73499995796,1.11111111111111,40,38,43,38,32,19,23,17,23,19,6,20,24,24,0,4,2,6,4,8,8,8,8,8,2,1,1,1,2,2,5.5,5.25,5.75,1,1,1,7,1,"2",45,2,3,1,1,3,3,4,6,1,3,"120000","Applied Behavioral Science","16","homemaker full time parent",2,1,0,"3",6.2,19.8666666666667,2.03692511159862,1.02693631346264,1.03610048045102,1.00095326109366,-0.991155136821877
"79","2n0R4z0W","Motor Function",75,35,20,45,"Yes to treatment",90,18166.3050000207,0.571428571428571,40,38,43,38,32,19,23,17,23,19,6,20,24,24,0,4,2,6,4,8,8,8,8,8,2,1,1,1,2,2,5.5,5.25,5.75,1,1,1,7,1,"2",45,2,3,1,1,3,3,4,6,1,3,"120000","Applied Behavioral Science","16","homemaker full time parent",2,1,0,"4",-3.8,-10.1333333333333,2.03692511159862,1.02693631346264,1.03610048045102,1.00095326109366,-0.991155136821877
"80","2n0R4z0W","Motor Function",75,40,40,20,"No to treatment",77,5310.51500001922,1,40,38,43,38,32,19,23,17,23,19,6,20,24,24,0,4,2,6,4,8,8,8,8,8,2,1,1,1,2,2,5.5,5.25,5.75,1,1,1,7,1,"2",45,2,3,1,1,3,3,4,6,1,3,"120000","Applied Behavioral Science","16","homemaker full time parent",2,1,0,"5",1.2,9.86666666666667,2.03692511159862,1.02693631346264,1.03610048045102,1.00095326109366,-0.991155136821877
"81","2n0R4z0W","Motor Function",75,35,30,35,"Yes to treatment",77,1734.41500001354,0.857142857142857,40,38,43,38,32,19,23,17,23,19,6,20,24,24,0,4,2,6,4,8,8,8,8,8,2,1,1,1,2,2,5.5,5.25,5.75,1,1,1,7,1,"2",45,2,3,1,1,3,3,4,6,1,3,"120000","Applied Behavioral Science","16","homemaker full time parent",2,1,0,"6",-3.8,-0.133333333333333,2.03692511159862,1.02693631346264,1.03610048045102,1.00095326109366,-0.991155136821877
"82","2n0R4z0W","Motor Function",75,50,10,40,"Yes to treatment",90,1853.30999997677,0.2,40,38,43,38,32,19,23,17,23,19,6,20,24,24,0,4,2,6,4,8,8,8,8,8,2,1,1,1,2,2,5.5,5.25,5.75,1,1,1,7,1,"2",45,2,3,1,1,3,3,4,6,1,3,"120000","Applied Behavioral Science","16","homemaker full time parent",2,1,0,"7",11.2,-20.1333333333333,2.03692511159862,1.02693631346264,1.03610048045102,1.00095326109366,-0.991155136821877
"83","2n0R4z0W","Motor Function",75,45,35,20,"No to treatment",77,12003.144999966,0.777777777777778,40,38,43,38,32,19,23,17,23,19,6,20,24,24,0,4,2,6,4,8,8,8,8,8,2,1,1,1,2,2,5.5,5.25,5.75,1,1,1,7,1,"2",45,2,3,1,1,3,3,4,6,1,3,"120000","Applied Behavioral Science","16","homemaker full time parent",2,1,0,"8",6.2,4.86666666666667,2.03692511159862,1.02693631346264,1.03610048045102,1.00095326109366,-0.991155136821877
"84","2n0R4z0W","Motor Function",75,10,10,80,"Yes to treatment",77,1415.19499995047,1,40,38,43,38,32,19,23,17,23,19,6,20,24,24,0,4,2,6,4,8,8,8,8,8,2,1,1,1,2,2,5.5,5.25,5.75,1,1,1,7,1,"2",45,2,3,1,1,3,3,4,6,1,3,"120000","Applied Behavioral Science","16","homemaker full time parent",2,1,0,"9",-28.8,-20.1333333333333,2.03692511159862,1.02693631346264,1.03610048045102,1.00095326109366,-0.991155136821877
"85","2n0R4z0W","Motor Function",75,50,45,5,"Yes to treatment",77,1175.18999997992,0.9,40,38,43,38,32,19,23,17,23,19,6,20,24,24,0,4,2,6,4,8,8,8,8,8,2,1,1,1,2,2,5.5,5.25,5.75,1,1,1,7,1,"2",45,2,3,1,1,3,3,4,6,1,3,"120000","Applied Behavioral Science","16","homemaker full time parent",2,1,0,"10",11.2,14.8666666666667,2.03692511159862,1.02693631346264,1.03610048045102,1.00095326109366,-0.991155136821877
"86","2n0R4z0W","Motor Function",75,30,5,65,"No to treatment",77,7687.33499996597,0.166666666666667,40,38,43,38,32,19,23,17,23,19,6,20,24,24,0,4,2,6,4,8,8,8,8,8,2,1,1,1,2,2,5.5,5.25,5.75,1,1,1,7,1,"2",45,2,3,1,1,3,3,4,6,1,3,"120000","Applied Behavioral Science","16","homemaker full time parent",2,1,0,"11",-8.8,-25.1333333333333,2.03692511159862,1.02693631346264,1.03610048045102,1.00095326109366,-0.991155136821877
"87","2n0R4z0W","Motor Function",75,55,20,25,"Yes to treatment",90,16775.4650000134,0.363636363636364,40,38,43,38,32,19,23,17,23,19,6,20,24,24,0,4,2,6,4,8,8,8,8,8,2,1,1,1,2,2,5.5,5.25,5.75,1,1,1,7,1,"2",45,2,3,1,1,3,3,4,6,1,3,"120000","Applied Behavioral Science","16","homemaker full time parent",2,1,0,"12",16.2,-10.1333333333333,2.03692511159862,1.02693631346264,1.03610048045102,1.00095326109366,-0.991155136821877
"88","2n0R4z0W","Motor Function",75,70,20,10,"No to treatment",90,4257.01499998104,0.285714285714286,40,38,43,38,32,19,23,17,23,19,6,20,24,24,0,4,2,6,4,8,8,8,8,8,2,1,1,1,2,2,5.5,5.25,5.75,1,1,1,7,1,"2",45,2,3,1,1,3,3,4,6,1,3,"120000","Applied Behavioral Science","16","homemaker full time parent",2,1,0,"13",31.2,-10.1333333333333,2.03692511159862,1.02693631346264,1.03610048045102,1.00095326109366,-0.991155136821877
"89","2n0R4z0W","Motor Function",75,55,20,25,"No to treatment",90,6878.78999998793,0.363636363636364,40,38,43,38,32,19,23,17,23,19,6,20,24,24,0,4,2,6,4,8,8,8,8,8,2,1,1,1,2,2,5.5,5.25,5.75,1,1,1,7,1,"2",45,2,3,1,1,3,3,4,6,1,3,"120000","Applied Behavioral Science","16","homemaker full time parent",2,1,0,"14",16.2,-10.1333333333333,2.03692511159862,1.02693631346264,1.03610048045102,1.00095326109366,-0.991155136821877
"90","2n0R4z0W","Motor Function",75,35,55,10,"Yes to treatment",77,3223.41500001494,1.57142857142857,40,38,43,38,32,19,23,17,23,19,6,20,24,24,0,4,2,6,4,8,8,8,8,8,2,1,1,1,2,2,5.5,5.25,5.75,1,1,1,7,1,"2",45,2,3,1,1,3,3,4,6,1,3,"120000","Applied Behavioral Science","16","homemaker full time parent",2,1,0,"15",-3.8,24.8666666666667,2.03692511159862,1.02693631346264,1.03610048045102,1.00095326109366,-0.991155136821877
"91","2n0R4z0W","Motor Function",75,45,40,15,"No to treatment",77,6150.51000000676,0.888888888888889,40,38,43,38,32,19,23,17,23,19,6,20,24,24,0,4,2,6,4,8,8,8,8,8,2,1,1,1,2,2,5.5,5.25,5.75,1,1,1,7,1,"2",45,2,3,1,1,3,3,4,6,1,3,"120000","Applied Behavioral Science","16","homemaker full time parent",2,1,0,"16",6.2,9.86666666666667,2.03692511159862,1.02693631346264,1.03610048045102,1.00095326109366,-0.991155136821877
"92","2n0R4z0W","Motor Function",75,40,50,10,"Yes to treatment",90,926.375000039116,1.25,40,38,43,38,32,19,23,17,23,19,6,20,24,24,0,4,2,6,4,8,8,8,8,8,2,1,1,1,2,2,5.5,5.25,5.75,1,1,1,7,1,"2",45,2,3,1,1,3,3,4,6,1,3,"120000","Applied Behavioral Science","16","homemaker full time parent",2,1,0,"17",1.2,19.8666666666667,2.03692511159862,1.02693631346264,1.03610048045102,1.00095326109366,-0.991155136821877
"93","2n0R4z0W","Motor Function",75,50,15,35,"No to treatment",90,4854.91500003263,0.3,40,38,43,38,32,19,23,17,23,19,6,20,24,24,0,4,2,6,4,8,8,8,8,8,2,1,1,1,2,2,5.5,5.25,5.75,1,1,1,7,1,"2",45,2,3,1,1,3,3,4,6,1,3,"120000","Applied Behavioral Science","16","homemaker full time parent",2,1,0,"18",11.2,-15.1333333333333,2.03692511159862,1.02693631346264,1.03610048045102,1.00095326109366,-0.991155136821877
"94","2n0R4z0W","Motor Function",75,65,5,30,"No to treatment",90,8151.40000003157,0.0769230769230769,40,38,43,38,32,19,23,17,23,19,6,20,24,24,0,4,2,6,4,8,8,8,8,8,2,1,1,1,2,2,5.5,5.25,5.75,1,1,1,7,1,"2",45,2,3,1,1,3,3,4,6,1,3,"120000","Applied Behavioral Science","16","homemaker full time parent",2,1,0,"19",26.2,-25.1333333333333,2.03692511159862,1.02693631346264,1.03610048045102,1.00095326109366,-0.991155136821877
"95","2n0R4z0W","Motor Function",75,10,75,15,"Yes to treatment",77,1960.30500001507,7.5,40,38,43,38,32,19,23,17,23,19,6,20,24,24,0,4,2,6,4,8,8,8,8,8,2,1,1,1,2,2,5.5,5.25,5.75,1,1,1,7,1,"2",45,2,3,1,1,3,3,4,6,1,3,"120000","Applied Behavioral Science","16","homemaker full time parent",2,1,0,"20",-28.8,44.8666666666667,2.03692511159862,1.02693631346264,1.03610048045102,1.00095326109366,-0.991155136821877
"96","2n0R4z0W","Motor Function",75,35,55,10,"Yes to treatment",90,18558.6599999806,1.57142857142857,40,38,43,38,32,19,23,17,23,19,6,20,24,24,0,4,2,6,4,8,8,8,8,8,2,1,1,1,2,2,5.5,5.25,5.75,1,1,1,7,1,"2",45,2,3,1,1,3,3,4,6,1,3,"120000","Applied Behavioral Science","16","homemaker full time parent",2,1,0,"21",-3.8,24.8666666666667,2.03692511159862,1.02693631346264,1.03610048045102,1.00095326109366,-0.991155136821877
"97","2n0R4z0W","Motor Function",75,55,15,30,"No to treatment",90,10485.6400000281,0.272727272727273,40,38,43,38,32,19,23,17,23,19,6,20,24,24,0,4,2,6,4,8,8,8,8,8,2,1,1,1,2,2,5.5,5.25,5.75,1,1,1,7,1,"2",45,2,3,1,1,3,3,4,6,1,3,"120000","Applied Behavioral Science","16","homemaker full time parent",2,1,0,"22",16.2,-15.1333333333333,2.03692511159862,1.02693631346264,1.03610048045102,1.00095326109366,-0.991155136821877
"98","2n0R4z0W","Motor Function",75,35,15,50,"Yes to treatment",90,3783.24000001885,0.428571428571429,40,38,43,38,32,19,23,17,23,19,6,20,24,24,0,4,2,6,4,8,8,8,8,8,2,1,1,1,2,2,5.5,5.25,5.75,1,1,1,7,1,"2",45,2,3,1,1,3,3,4,6,1,3,"120000","Applied Behavioral Science","16","homemaker full time parent",2,1,0,"23",-3.8,-15.1333333333333,2.03692511159862,1.02693631346264,1.03610048045102,1.00095326109366,-0.991155136821877
"99","2n0R4z0W","Motor Function",75,35,10,55,"No to treatment",90,5487.36000002827,0.285714285714286,40,38,43,38,32,19,23,17,23,19,6,20,24,24,0,4,2,6,4,8,8,8,8,8,2,1,1,1,2,2,5.5,5.25,5.75,1,1,1,7,1,"2",45,2,3,1,1,3,3,4,6,1,3,"120000","Applied Behavioral Science","16","homemaker full time parent",2,1,0,"24",-3.8,-20.1333333333333,2.03692511159862,1.02693631346264,1.03610048045102,1.00095326109366,-0.991155136821877
"100","2n0R4z0W","Motor Function",75,65,15,20,"Yes to treatment",90,1392.75499997893,0.230769230769231,40,38,43,38,32,19,23,17,23,19,6,20,24,24,0,4,2,6,4,8,8,8,8,8,2,1,1,1,2,2,5.5,5.25,5.75,1,1,1,7,1,"2",45,2,3,1,1,3,3,4,6,1,3,"120000","Applied Behavioral Science","16","homemaker full time parent",2,1,0,"25",26.2,-15.1333333333333,2.03692511159862,1.02693631346264,1.03610048045102,1.00095326109366,-0.991155136821877
"101","2n0R4z0W","Motor Function",75,5,65,30,"Yes to treatment",77,1935.49499998335,13,40,38,43,38,32,19,23,17,23,19,6,20,24,24,0,4,2,6,4,8,8,8,8,8,2,1,1,1,2,2,5.5,5.25,5.75,1,1,1,7,1,"2",45,2,3,1,1,3,3,4,6,1,3,"120000","Applied Behavioral Science","16","homemaker full time parent",2,1,0,"26",-33.8,34.8666666666667,2.03692511159862,1.02693631346264,1.03610048045102,1.00095326109366,-0.991155136821877
"102","2n0R4z0W","Motor Function",75,65,10,25,"Yes to treatment",77,830.505000019912,0.153846153846154,40,38,43,38,32,19,23,17,23,19,6,20,24,24,0,4,2,6,4,8,8,8,8,8,2,1,1,1,2,2,5.5,5.25,5.75,1,1,1,7,1,"2",45,2,3,1,1,3,3,4,6,1,3,"120000","Applied Behavioral Science","16","homemaker full time parent",2,1,0,"27",26.2,-20.1333333333333,2.03692511159862,1.02693631346264,1.03610048045102,1.00095326109366,-0.991155136821877
"103","2n0R4z0W","Motor Function",75,35,45,20,"No to treatment",77,4616.44499999238,1.28571428571429,40,38,43,38,32,19,23,17,23,19,6,20,24,24,0,4,2,6,4,8,8,8,8,8,2,1,1,1,2,2,5.5,5.25,5.75,1,1,1,7,1,"2",45,2,3,1,1,3,3,4,6,1,3,"120000","Applied Behavioral Science","16","homemaker full time parent",2,1,0,"28",-3.8,14.8666666666667,2.03692511159862,1.02693631346264,1.03610048045102,1.00095326109366,-0.991155136821877
"104","2n0R4z0W","Motor Function",75,65,10,25,"Yes to treatment",77,2693.99999995949,0.153846153846154,40,38,43,38,32,19,23,17,23,19,6,20,24,24,0,4,2,6,4,8,8,8,8,8,2,1,1,1,2,2,5.5,5.25,5.75,1,1,1,7,1,"2",45,2,3,1,1,3,3,4,6,1,3,"120000","Applied Behavioral Science","16","homemaker full time parent",2,1,0,"29",26.2,-20.1333333333333,2.03692511159862,1.02693631346264,1.03610048045102,1.00095326109366,-0.991155136821877
"105","2n0R4z0W","Motor Function",75,25,15,60,"No to treatment",77,1837.72499999031,0.6,40,38,43,38,32,19,23,17,23,19,6,20,24,24,0,4,2,6,4,8,8,8,8,8,2,1,1,1,2,2,5.5,5.25,5.75,1,1,1,7,1,"2",45,2,3,1,1,3,3,4,6,1,3,"120000","Applied Behavioral Science","16","homemaker full time parent",2,1,0,"30",-13.8,-15.1333333333333,2.03692511159862,1.02693631346264,1.03610048045102,1.00095326109366,-0.991155136821877
"106","2n0R4z0W","Motor Function",75,20,40,40,"Yes to treatment",77,2680.23500003619,2,40,38,43,38,32,19,23,17,23,19,6,20,24,24,0,4,2,6,4,8,8,8,8,8,2,1,1,1,2,2,5.5,5.25,5.75,1,1,1,7,1,"2",45,2,3,1,1,3,3,4,6,1,3,"120000","Applied Behavioral Science","16","homemaker full time parent",2,1,0,"31",-18.8,9.86666666666667,2.03692511159862,1.02693631346264,1.03610048045102,1.00095326109366,-0.991155136821877
"107","2n0R4z0W","Motor Function",75,30,30,40,"Yes to treatment",90,1310.47500000568,1,40,38,43,38,32,19,23,17,23,19,6,20,24,24,0,4,2,6,4,8,8,8,8,8,2,1,1,1,2,2,5.5,5.25,5.75,1,1,1,7,1,"2",45,2,3,1,1,3,3,4,6,1,3,"120000","Applied Behavioral Science","16","homemaker full time parent",2,1,0,"32",-8.8,-0.133333333333333,2.03692511159862,1.02693631346264,1.03610048045102,1.00095326109366,-0.991155136821877
"108","2n0R4z0W","Motor Function",75,45,30,25,"Yes to treatment",77,1311.50499999058,0.666666666666667,40,38,43,38,32,19,23,17,23,19,6,20,24,24,0,4,2,6,4,8,8,8,8,8,2,1,1,1,2,2,5.5,5.25,5.75,1,1,1,7,1,"2",45,2,3,1,1,3,3,4,6,1,3,"120000","Applied Behavioral Science","16","homemaker full time parent",2,1,0,"33",6.2,-0.133333333333333,2.03692511159862,1.02693631346264,1.03610048045102,1.00095326109366,-0.991155136821877
"109","2n0R4z0W","Motor Function",75,10,30,60,"No to treatment",90,2102.49499999918,3,40,38,43,38,32,19,23,17,23,19,6,20,24,24,0,4,2,6,4,8,8,8,8,8,2,1,1,1,2,2,5.5,5.25,5.75,1,1,1,7,1,"2",45,2,3,1,1,3,3,4,6,1,3,"120000","Applied Behavioral Science","16","homemaker full time parent",2,1,0,"34",-28.8,-0.133333333333333,2.03692511159862,1.02693631346264,1.03610048045102,1.00095326109366,-0.991155136821877
"110","2n0R4z0W","Motor Function",75,50,30,20,"Yes to treatment",90,4638.70999997016,0.6,40,38,43,38,32,19,23,17,23,19,6,20,24,24,0,4,2,6,4,8,8,8,8,8,2,1,1,1,2,2,5.5,5.25,5.75,1,1,1,7,1,"2",45,2,3,1,1,3,3,4,6,1,3,"120000","Applied Behavioral Science","16","homemaker full time parent",2,1,0,"35",11.2,-0.133333333333333,2.03692511159862,1.02693631346264,1.03610048045102,1.00095326109366,-0.991155136821877
"111","2n0R4z0W","Motor Function",75,60,10,30,"Yes to treatment",77,1702.47000001837,0.166666666666667,40,38,43,38,32,19,23,17,23,19,6,20,24,24,0,4,2,6,4,8,8,8,8,8,2,1,1,1,2,2,5.5,5.25,5.75,1,1,1,7,1,"2",45,2,3,1,1,3,3,4,6,1,3,"120000","Applied Behavioral Science","16","homemaker full time parent",2,1,0,"36",21.2,-20.1333333333333,2.03692511159862,1.02693631346264,1.03610048045102,1.00095326109366,-0.991155136821877
"112","2n0R4z0W","Motor Function",75,50,5,45,"No to treatment",90,3798.62499999581,0.1,40,38,43,38,32,19,23,17,23,19,6,20,24,24,0,4,2,6,4,8,8,8,8,8,2,1,1,1,2,2,5.5,5.25,5.75,1,1,1,7,1,"2",45,2,3,1,1,3,3,4,6,1,3,"120000","Applied Behavioral Science","16","homemaker full time parent",2,1,0,"37",11.2,-25.1333333333333,2.03692511159862,1.02693631346264,1.03610048045102,1.00095326109366,-0.991155136821877
"113","2n0R4z0W","Motor Function",75,35,35,30,"No to treatment",77,5903.40000001015,1,40,38,43,38,32,19,23,17,23,19,6,20,24,24,0,4,2,6,4,8,8,8,8,8,2,1,1,1,2,2,5.5,5.25,5.75,1,1,1,7,1,"2",45,2,3,1,1,3,3,4,6,1,3,"120000","Applied Behavioral Science","16","homemaker full time parent",2,1,0,"38",-3.8,4.86666666666667,2.03692511159862,1.02693631346264,1.03610048045102,1.00095326109366,-0.991155136821877
"114","2n0R4z0W","Motor Function",75,70,15,15,"No to treatment",90,4591.4299999713,0.214285714285714,40,38,43,38,32,19,23,17,23,19,6,20,24,24,0,4,2,6,4,8,8,8,8,8,2,1,1,1,2,2,5.5,5.25,5.75,1,1,1,7,1,"2",45,2,3,1,1,3,3,4,6,1,3,"120000","Applied Behavioral Science","16","homemaker full time parent",2,1,0,"39",31.2,-15.1333333333333,2.03692511159862,1.02693631346264,1.03610048045102,1.00095326109366,-0.991155136821877
"115","2n0R4z0W","Motor Function",75,10,45,45,"No to treatment",90,8126.5049999929,4.5,40,38,43,38,32,19,23,17,23,19,6,20,24,24,0,4,2,6,4,8,8,8,8,8,2,1,1,1,2,2,5.5,5.25,5.75,1,1,1,7,1,"2",45,2,3,1,1,3,3,4,6,1,3,"120000","Applied Behavioral Science","16","homemaker full time parent",2,1,0,"40",-28.8,14.8666666666667,2.03692511159862,1.02693631346264,1.03610048045102,1.00095326109366,-0.991155136821877
"116","2n0R4z0W","Motor Function",75,5,35,60,"No to treatment",77,2431.93500000052,7,40,38,43,38,32,19,23,17,23,19,6,20,24,24,0,4,2,6,4,8,8,8,8,8,2,1,1,1,2,2,5.5,5.25,5.75,1,1,1,7,1,"2",45,2,3,1,1,3,3,4,6,1,3,"120000","Applied Behavioral Science","16","homemaker full time parent",2,1,0,"41",-33.8,4.86666666666667,2.03692511159862,1.02693631346264,1.03610048045102,1.00095326109366,-0.991155136821877
"117","2n0R4z0W","Motor Function",75,50,5,45,"Yes to treatment",77,4406.94000001531,0.1,40,38,43,38,32,19,23,17,23,19,6,20,24,24,0,4,2,6,4,8,8,8,8,8,2,1,1,1,2,2,5.5,5.25,5.75,1,1,1,7,1,"2",45,2,3,1,1,3,3,4,6,1,3,"120000","Applied Behavioral Science","16","homemaker full time parent",2,1,0,"42",11.2,-25.1333333333333,2.03692511159862,1.02693631346264,1.03610048045102,1.00095326109366,-0.991155136821877
"118","2n0R4z0W","Motor Function",75,60,30,10,"Yes to treatment",90,1326.8350000144,0.5,40,38,43,38,32,19,23,17,23,19,6,20,24,24,0,4,2,6,4,8,8,8,8,8,2,1,1,1,2,2,5.5,5.25,5.75,1,1,1,7,1,"2",45,2,3,1,1,3,3,4,6,1,3,"120000","Applied Behavioral Science","16","homemaker full time parent",2,1,0,"43",21.2,-0.133333333333333,2.03692511159862,1.02693631346264,1.03610048045102,1.00095326109366,-0.991155136821877
"119","2n0R4z0W","Motor Function",75,50,40,10,"Yes to treatment",90,1974.05499999877,0.8,40,38,43,38,32,19,23,17,23,19,6,20,24,24,0,4,2,6,4,8,8,8,8,8,2,1,1,1,2,2,5.5,5.25,5.75,1,1,1,7,1,"2",45,2,3,1,1,3,3,4,6,1,3,"120000","Applied Behavioral Science","16","homemaker full time parent",2,1,0,"44",11.2,9.86666666666667,2.03692511159862,1.02693631346264,1.03610048045102,1.00095326109366,-0.991155136821877
"120","2n0R4z0W","Motor Function",75,50,20,30,"Yes to treatment",77,1040.25999997975,0.4,40,38,43,38,32,19,23,17,23,19,6,20,24,24,0,4,2,6,4,8,8,8,8,8,2,1,1,1,2,2,5.5,5.25,5.75,1,1,1,7,1,"2",45,2,3,1,1,3,3,4,6,1,3,"120000","Applied Behavioral Science","16","homemaker full time parent",2,1,0,"45",11.2,-10.1333333333333,2.03692511159862,1.02693631346264,1.03610048045102,1.00095326109366,-0.991155136821877
"121","2n0R4z0W","Motor Function",75,20,55,25,"Yes to treatment",77,1632.12999998359,2.75,40,38,43,38,32,19,23,17,23,19,6,20,24,24,0,4,2,6,4,8,8,8,8,8,2,1,1,1,2,2,5.5,5.25,5.75,1,1,1,7,1,"2",45,2,3,1,1,3,3,4,6,1,3,"120000","Applied Behavioral Science","16","homemaker full time parent",2,1,0,"46",-18.8,24.8666666666667,2.03692511159862,1.02693631346264,1.03610048045102,1.00095326109366,-0.991155136821877
"122","2n0R4z0W","Motor Function",75,70,25,5,"Yes to treatment",90,2541.64500004845,0.357142857142857,40,38,43,38,32,19,23,17,23,19,6,20,24,24,0,4,2,6,4,8,8,8,8,8,2,1,1,1,2,2,5.5,5.25,5.75,1,1,1,7,1,"2",45,2,3,1,1,3,3,4,6,1,3,"120000","Applied Behavioral Science","16","homemaker full time parent",2,1,0,"47",31.2,-5.13333333333333,2.03692511159862,1.02693631346264,1.03610048045102,1.00095326109366,-0.991155136821877
"123","2n0R4z0W","Motor Function",75,50,10,40,"No to treatment",77,3208.07499997318,0.2,40,38,43,38,32,19,23,17,23,19,6,20,24,24,0,4,2,6,4,8,8,8,8,8,2,1,1,1,2,2,5.5,5.25,5.75,1,1,1,7,1,"2",45,2,3,1,1,3,3,4,6,1,3,"120000","Applied Behavioral Science","16","homemaker full time parent",2,1,0,"48",11.2,-20.1333333333333,2.03692511159862,1.02693631346264,1.03610048045102,1.00095326109366,-0.991155136821877
"124","2n0R4z0W","Motor Function",75,65,15,20,"Yes to treatment",90,3286.38000000501,0.230769230769231,40,38,43,38,32,19,23,17,23,19,6,20,24,24,0,4,2,6,4,8,8,8,8,8,2,1,1,1,2,2,5.5,5.25,5.75,1,1,1,7,1,"2",45,2,3,1,1,3,3,4,6,1,3,"120000","Applied Behavioral Science","16","homemaker full time parent",2,1,0,"49",26.2,-15.1333333333333,2.03692511159862,1.02693631346264,1.03610048045102,1.00095326109366,-0.991155136821877
"125","2n0R4z0W","Motor Function",75,15,60,25,"No to treatment",77,12503.8599999971,4,40,38,43,38,32,19,23,17,23,19,6,20,24,24,0,4,2,6,4,8,8,8,8,8,2,1,1,1,2,2,5.5,5.25,5.75,1,1,1,7,1,"2",45,2,3,1,1,3,3,4,6,1,3,"120000","Applied Behavioral Science","16","homemaker full time parent",2,1,0,"50",-23.8,29.8666666666667,2.03692511159862,1.02693631346264,1.03610048045102,1.00095326109366,-0.991155136821877
"126","2n0R4z0W","Motor Function",75,35,20,45,"Yes to treatment",90,935.575000010431,0.571428571428571,40,38,43,38,32,19,23,17,23,19,6,20,24,24,0,4,2,6,4,8,8,8,8,8,2,1,1,1,2,2,5.5,5.25,5.75,1,1,1,7,1,"2",45,2,3,1,1,3,3,4,6,1,3,"120000","Applied Behavioral Science","16","homemaker full time parent",2,1,0,"51",-3.8,-10.1333333333333,2.03692511159862,1.02693631346264,1.03610048045102,1.00095326109366,-0.991155136821877
"127","2n0R4z0W","Motor Function",75,50,30,20,"Yes to treatment",90,2334.6400000155,0.6,40,38,43,38,32,19,23,17,23,19,6,20,24,24,0,4,2,6,4,8,8,8,8,8,2,1,1,1,2,2,5.5,5.25,5.75,1,1,1,7,1,"2",45,2,3,1,1,3,3,4,6,1,3,"120000","Applied Behavioral Science","16","homemaker full time parent",2,1,0,"52",11.2,-0.133333333333333,2.03692511159862,1.02693631346264,1.03610048045102,1.00095326109366,-0.991155136821877
"128","2n0R4z0W","Motor Function",75,40,40,20,"Yes to treatment",90,1079.30500002112,1,40,38,43,38,32,19,23,17,23,19,6,20,24,24,0,4,2,6,4,8,8,8,8,8,2,1,1,1,2,2,5.5,5.25,5.75,1,1,1,7,1,"2",45,2,3,1,1,3,3,4,6,1,3,"120000","Applied Behavioral Science","16","homemaker full time parent",2,1,0,"53",1.2,9.86666666666667,2.03692511159862,1.02693631346264,1.03610048045102,1.00095326109366,-0.991155136821877
"129","2n0R4z0W","Motor Function",75,45,10,45,"No to treatment",77,4447.34000001336,0.222222222222222,40,38,43,38,32,19,23,17,23,19,6,20,24,24,0,4,2,6,4,8,8,8,8,8,2,1,1,1,2,2,5.5,5.25,5.75,1,1,1,7,1,"2",45,2,3,1,1,3,3,4,6,1,3,"120000","Applied Behavioral Science","16","homemaker full time parent",2,1,0,"54",6.2,-20.1333333333333,2.03692511159862,1.02693631346264,1.03610048045102,1.00095326109366,-0.991155136821877
"130","2n0R4z0W","Motor Function",75,25,35,40,"No to treatment",77,1495.43000000995,1.4,40,38,43,38,32,19,23,17,23,19,6,20,24,24,0,4,2,6,4,8,8,8,8,8,2,1,1,1,2,2,5.5,5.25,5.75,1,1,1,7,1,"2",45,2,3,1,1,3,3,4,6,1,3,"120000","Applied Behavioral Science","16","homemaker full time parent",2,1,0,"55",-13.8,4.86666666666667,2.03692511159862,1.02693631346264,1.03610048045102,1.00095326109366,-0.991155136821877
"131","2n0R4z0W","Motor Function",75,35,55,10,"Yes to treatment",90,6956.92500000587,1.57142857142857,40,38,43,38,32,19,23,17,23,19,6,20,24,24,0,4,2,6,4,8,8,8,8,8,2,1,1,1,2,2,5.5,5.25,5.75,1,1,1,7,1,"2",45,2,3,1,1,3,3,4,6,1,3,"120000","Applied Behavioral Science","16","homemaker full time parent",2,1,0,"56",-3.8,24.8666666666667,2.03692511159862,1.02693631346264,1.03610048045102,1.00095326109366,-0.991155136821877
"132","2n0R4z0W","Motor Function",75,65,15,20,"No to treatment",77,3790.65999999875,0.230769230769231,40,38,43,38,32,19,23,17,23,19,6,20,24,24,0,4,2,6,4,8,8,8,8,8,2,1,1,1,2,2,5.5,5.25,5.75,1,1,1,7,1,"2",45,2,3,1,1,3,3,4,6,1,3,"120000","Applied Behavioral Science","16","homemaker full time parent",2,1,0,"57",26.2,-15.1333333333333,2.03692511159862,1.02693631346264,1.03610048045102,1.00095326109366,-0.991155136821877
"133","2n0R4z0W","Motor Function",75,5,5,90,"Yes to treatment",90,1200.08500001859,1,40,38,43,38,32,19,23,17,23,19,6,20,24,24,0,4,2,6,4,8,8,8,8,8,2,1,1,1,2,2,5.5,5.25,5.75,1,1,1,7,1,"2",45,2,3,1,1,3,3,4,6,1,3,"120000","Applied Behavioral Science","16","homemaker full time parent",2,1,0,"58",-33.8,-25.1333333333333,2.03692511159862,1.02693631346264,1.03610048045102,1.00095326109366,-0.991155136821877
"134","2n0R4z0W","Motor Function",75,15,65,20,"Yes to treatment",90,959.569999948144,4.33333333333333,40,38,43,38,32,19,23,17,23,19,6,20,24,24,0,4,2,6,4,8,8,8,8,8,2,1,1,1,2,2,5.5,5.25,5.75,1,1,1,7,1,"2",45,2,3,1,1,3,3,4,6,1,3,"120000","Applied Behavioral Science","16","homemaker full time parent",2,1,0,"59",-23.8,34.8666666666667,2.03692511159862,1.02693631346264,1.03610048045102,1.00095326109366,-0.991155136821877
"135","2n0R4z0W","Motor Function",75,30,40,30,"No to treatment",77,8287.64999995474,1.33333333333333,40,38,43,38,32,19,23,17,23,19,6,20,24,24,0,4,2,6,4,8,8,8,8,8,2,1,1,1,2,2,5.5,5.25,5.75,1,1,1,7,1,"2",45,2,3,1,1,3,3,4,6,1,3,"120000","Applied Behavioral Science","16","homemaker full time parent",2,1,0,"60",-8.8,9.86666666666667,2.03692511159862,1.02693631346264,1.03610048045102,1.00095326109366,-0.991155136821877
"136","2n0R4z0W","Motor Function",75,70,15,15,"Yes to treatment",90,983.179999981076,0.214285714285714,40,38,43,38,32,19,23,17,23,19,6,20,24,24,0,4,2,6,4,8,8,8,8,8,2,1,1,1,2,2,5.5,5.25,5.75,1,1,1,7,1,"2",45,2,3,1,1,3,3,4,6,1,3,"120000","Applied Behavioral Science","16","homemaker full time parent",2,1,0,"61",31.2,-15.1333333333333,2.03692511159862,1.02693631346264,1.03610048045102,1.00095326109366,-0.991155136821877
"137","2n0R4z0W","Motor Function",75,55,20,25,"Yes to treatment",77,1783.46999996575,0.363636363636364,40,38,43,38,32,19,23,17,23,19,6,20,24,24,0,4,2,6,4,8,8,8,8,8,2,1,1,1,2,2,5.5,5.25,5.75,1,1,1,7,1,"2",45,2,3,1,1,3,3,4,6,1,3,"120000","Applied Behavioral Science","16","homemaker full time parent",2,1,0,"62",16.2,-10.1333333333333,2.03692511159862,1.02693631346264,1.03610048045102,1.00095326109366,-0.991155136821877
"138","2n0R4z0W","Motor Function",75,15,70,15,"Yes to treatment",77,3608.39499998838,4.66666666666667,40,38,43,38,32,19,23,17,23,19,6,20,24,24,0,4,2,6,4,8,8,8,8,8,2,1,1,1,2,2,5.5,5.25,5.75,1,1,1,7,1,"2",45,2,3,1,1,3,3,4,6,1,3,"120000","Applied Behavioral Science","16","homemaker full time parent",2,1,0,"63",-23.8,39.8666666666667,2.03692511159862,1.02693631346264,1.03610048045102,1.00095326109366,-0.991155136821877
"139","2n0R4z0W","Motor Function",75,10,80,10,"No to treatment",90,4695.16000000294,8,40,38,43,38,32,19,23,17,23,19,6,20,24,24,0,4,2,6,4,8,8,8,8,8,2,1,1,1,2,2,5.5,5.25,5.75,1,1,1,7,1,"2",45,2,3,1,1,3,3,4,6,1,3,"120000","Applied Behavioral Science","16","homemaker full time parent",2,1,0,"64",-28.8,49.8666666666667,2.03692511159862,1.02693631346264,1.03610048045102,1.00095326109366,-0.991155136821877
"140","2n0R4z0W","Motor Function",75,50,45,5,"Yes to treatment",77,1894.51499999268,0.9,40,38,43,38,32,19,23,17,23,19,6,20,24,24,0,4,2,6,4,8,8,8,8,8,2,1,1,1,2,2,5.5,5.25,5.75,1,1,1,7,1,"2",45,2,3,1,1,3,3,4,6,1,3,"120000","Applied Behavioral Science","16","homemaker full time parent",2,1,0,"65",11.2,14.8666666666667,2.03692511159862,1.02693631346264,1.03610048045102,1.00095326109366,-0.991155136821877
"141","2n0R4z0W","Motor Function",75,60,35,5,"Yes to treatment",90,2276.77500003483,0.583333333333333,40,38,43,38,32,19,23,17,23,19,6,20,24,24,0,4,2,6,4,8,8,8,8,8,2,1,1,1,2,2,5.5,5.25,5.75,1,1,1,7,1,"2",45,2,3,1,1,3,3,4,6,1,3,"120000","Applied Behavioral Science","16","homemaker full time parent",2,1,0,"66",21.2,4.86666666666667,2.03692511159862,1.02693631346264,1.03610048045102,1.00095326109366,-0.991155136821877
"142","2n0R4z0W","Motor Function",75,40,25,35,"Yes to treatment",90,7335.43500001542,0.625,40,38,43,38,32,19,23,17,23,19,6,20,24,24,0,4,2,6,4,8,8,8,8,8,2,1,1,1,2,2,5.5,5.25,5.75,1,1,1,7,1,"2",45,2,3,1,1,3,3,4,6,1,3,"120000","Applied Behavioral Science","16","homemaker full time parent",2,1,0,"67",1.2,-5.13333333333333,2.03692511159862,1.02693631346264,1.03610048045102,1.00095326109366,-0.991155136821877
"143","2n0R4z0W","Motor Function",75,20,25,55,"Yes to treatment",90,1567.25500000175,1.25,40,38,43,38,32,19,23,17,23,19,6,20,24,24,0,4,2,6,4,8,8,8,8,8,2,1,1,1,2,2,5.5,5.25,5.75,1,1,1,7,1,"2",45,2,3,1,1,3,3,4,6,1,3,"120000","Applied Behavioral Science","16","homemaker full time parent",2,1,0,"68",-18.8,-5.13333333333333,2.03692511159862,1.02693631346264,1.03610048045102,1.00095326109366,-0.991155136821877
"144","2n0R4z0W","Motor Function",75,5,10,85,"No to treatment",90,3173.83000004338,2,40,38,43,38,32,19,23,17,23,19,6,20,24,24,0,4,2,6,4,8,8,8,8,8,2,1,1,1,2,2,5.5,5.25,5.75,1,1,1,7,1,"2",45,2,3,1,1,3,3,4,6,1,3,"120000","Applied Behavioral Science","16","homemaker full time parent",2,1,0,"69",-33.8,-20.1333333333333,2.03692511159862,1.02693631346264,1.03610048045102,1.00095326109366,-0.991155136821877
"145","2n0R4z0W","Motor Function",75,5,25,70,"Yes to treatment",77,840.124999987893,5,40,38,43,38,32,19,23,17,23,19,6,20,24,24,0,4,2,6,4,8,8,8,8,8,2,1,1,1,2,2,5.5,5.25,5.75,1,1,1,7,1,"2",45,2,3,1,1,3,3,4,6,1,3,"120000","Applied Behavioral Science","16","homemaker full time parent",2,1,0,"70",-33.8,-5.13333333333333,2.03692511159862,1.02693631346264,1.03610048045102,1.00095326109366,-0.991155136821877
"146","2n0R4z0W","Motor Function",75,20,65,15,"Yes to treatment",77,3157.76499995263,3.25,40,38,43,38,32,19,23,17,23,19,6,20,24,24,0,4,2,6,4,8,8,8,8,8,2,1,1,1,2,2,5.5,5.25,5.75,1,1,1,7,1,"2",45,2,3,1,1,3,3,4,6,1,3,"120000","Applied Behavioral Science","16","homemaker full time parent",2,1,0,"71",-18.8,34.8666666666667,2.03692511159862,1.02693631346264,1.03610048045102,1.00095326109366,-0.991155136821877
"147","2n0R4z0W","Motor Function",75,65,15,20,"Yes to treatment",77,2271.16499998374,0.230769230769231,40,38,43,38,32,19,23,17,23,19,6,20,24,24,0,4,2,6,4,8,8,8,8,8,2,1,1,1,2,2,5.5,5.25,5.75,1,1,1,7,1,"2",45,2,3,1,1,3,3,4,6,1,3,"120000","Applied Behavioral Science","16","homemaker full time parent",2,1,0,"72",26.2,-15.1333333333333,2.03692511159862,1.02693631346264,1.03610048045102,1.00095326109366,-0.991155136821877
"148","2n0R4z0W","Motor Function",75,30,55,15,"No to treatment",77,5647.61999994516,1.83333333333333,40,38,43,38,32,19,23,17,23,19,6,20,24,24,0,4,2,6,4,8,8,8,8,8,2,1,1,1,2,2,5.5,5.25,5.75,1,1,1,7,1,"2",45,2,3,1,1,3,3,4,6,1,3,"120000","Applied Behavioral Science","16","homemaker full time parent",2,1,0,"73",-8.8,24.8666666666667,2.03692511159862,1.02693631346264,1.03610048045102,1.00095326109366,-0.991155136821877
"149","2n0R4z0W","Motor Function",75,20,5,75,"No to treatment",77,3265.16499998979,0.25,40,38,43,38,32,19,23,17,23,19,6,20,24,24,0,4,2,6,4,8,8,8,8,8,2,1,1,1,2,2,5.5,5.25,5.75,1,1,1,7,1,"2",45,2,3,1,1,3,3,4,6,1,3,"120000","Applied Behavioral Science","16","homemaker full time parent",2,1,0,"74",-18.8,-25.1333333333333,2.03692511159862,1.02693631346264,1.03610048045102,1.00095326109366,-0.991155136821877
"150","2n0R4z0W","Motor Function",75,25,5,70,"Yes to treatment",90,1783.23999996064,0.2,40,38,43,38,32,19,23,17,23,19,6,20,24,24,0,4,2,6,4,8,8,8,8,8,2,1,1,1,2,2,5.5,5.25,5.75,1,1,1,7,1,"2",45,2,3,1,1,3,3,4,6,1,3,"120000","Applied Behavioral Science","16","homemaker full time parent",2,1,0,"75",-13.8,-25.1333333333333,2.03692511159862,1.02693631346264,1.03610048045102,1.00095326109366,-0.991155136821877
"151","4lsMLrPn","Motor Function",75,15,20,65,"Yes to treatment",77,3360.88500000187,1.33333333333333,29,35,43,41,43,19,24,7,20,10,19,17,10,14,5,8,8,7,8,6,6,4,5,6,2,2,2,2,1,1,5.625,5.25,6,1,6,4,1,6,"2",27,4,2,1,7,1,1,1,1,1,2,"76000","English","15","Group fitness instructor (currently unemployed due to coronavirus)",1,1,0,"1",-17.6666666666667,-12.3333333333333,0.165665195111689,0.563629711574528,1.86524461688823,1.01315979484325,-0.302174688762714
"152","4lsMLrPn","Motor Function",75,5,85,10,"Yes to treatment",90,2982.40500001702,17,29,35,43,41,43,19,24,7,20,10,19,17,10,14,5,8,8,7,8,6,6,4,5,6,2,2,2,2,1,1,5.625,5.25,6,1,6,4,1,6,"2",27,4,2,1,7,1,1,1,1,1,2,"76000","English","15","Group fitness instructor (currently unemployed due to coronavirus)",1,1,0,"2",-27.6666666666667,52.6666666666667,0.165665195111689,0.563629711574528,1.86524461688823,1.01315979484325,-0.302174688762714
"153","4lsMLrPn","Motor Function",75,25,25,50,"No to treatment",77,759.690000006231,1,29,35,43,41,43,19,24,7,20,10,19,17,10,14,5,8,8,7,8,6,6,4,5,6,2,2,2,2,1,1,5.625,5.25,6,1,6,4,1,6,"2",27,4,2,1,7,1,1,1,1,1,2,"76000","English","15","Group fitness instructor (currently unemployed due to coronavirus)",1,1,0,"3",-7.66666666666666,-7.33333333333334,0.165665195111689,0.563629711574528,1.86524461688823,1.01315979484325,-0.302174688762714
"154","4lsMLrPn","Motor Function",75,25,70,5,"Yes to treatment",90,732.770000002347,2.8,29,35,43,41,43,19,24,7,20,10,19,17,10,14,5,8,8,7,8,6,6,4,5,6,2,2,2,2,1,1,5.625,5.25,6,1,6,4,1,6,"2",27,4,2,1,7,1,1,1,1,1,2,"76000","English","15","Group fitness instructor (currently unemployed due to coronavirus)",1,1,0,"4",-7.66666666666666,37.6666666666667,0.165665195111689,0.563629711574528,1.86524461688823,1.01315979484325,-0.302174688762714
"155","4lsMLrPn","Motor Function",75,60,5,35,"No to treatment",90,657.130000006873,0.0833333333333333,29,35,43,41,43,19,24,7,20,10,19,17,10,14,5,8,8,7,8,6,6,4,5,6,2,2,2,2,1,1,5.625,5.25,6,1,6,4,1,6,"2",27,4,2,1,7,1,1,1,1,1,2,"76000","English","15","Group fitness instructor (currently unemployed due to coronavirus)",1,1,0,"5",27.3333333333333,-27.3333333333333,0.165665195111689,0.563629711574528,1.86524461688823,1.01315979484325,-0.302174688762714
"156","4lsMLrPn","Motor Function",75,25,55,20,"Yes to treatment",77,591.075000003912,2.2,29,35,43,41,43,19,24,7,20,10,19,17,10,14,5,8,8,7,8,6,6,4,5,6,2,2,2,2,1,1,5.625,5.25,6,1,6,4,1,6,"2",27,4,2,1,7,1,1,1,1,1,2,"76000","English","15","Group fitness instructor (currently unemployed due to coronavirus)",1,1,0,"6",-7.66666666666666,22.6666666666667,0.165665195111689,0.563629711574528,1.86524461688823,1.01315979484325,-0.302174688762714
"157","4lsMLrPn","Motor Function",75,15,30,55,"Yes to treatment",90,2146.56500000274,2,29,35,43,41,43,19,24,7,20,10,19,17,10,14,5,8,8,7,8,6,6,4,5,6,2,2,2,2,1,1,5.625,5.25,6,1,6,4,1,6,"2",27,4,2,1,7,1,1,1,1,1,2,"76000","English","15","Group fitness instructor (currently unemployed due to coronavirus)",1,1,0,"7",-17.6666666666667,-2.33333333333334,0.165665195111689,0.563629711574528,1.86524461688823,1.01315979484325,-0.302174688762714
"158","4lsMLrPn","Motor Function",75,35,45,20,"Yes to treatment",90,1286.28999998909,1.28571428571429,29,35,43,41,43,19,24,7,20,10,19,17,10,14,5,8,8,7,8,6,6,4,5,6,2,2,2,2,1,1,5.625,5.25,6,1,6,4,1,6,"2",27,4,2,1,7,1,1,1,1,1,2,"76000","English","15","Group fitness instructor (currently unemployed due to coronavirus)",1,1,0,"8",2.33333333333334,12.6666666666667,0.165665195111689,0.563629711574528,1.86524461688823,1.01315979484325,-0.302174688762714
"159","4lsMLrPn","Motor Function",75,30,50,20,"Yes to treatment",90,648.704999999609,1.66666666666667,29,35,43,41,43,19,24,7,20,10,19,17,10,14,5,8,8,7,8,6,6,4,5,6,2,2,2,2,1,1,5.625,5.25,6,1,6,4,1,6,"2",27,4,2,1,7,1,1,1,1,1,2,"76000","English","15","Group fitness instructor (currently unemployed due to coronavirus)",1,1,0,"9",-2.66666666666666,17.6666666666667,0.165665195111689,0.563629711574528,1.86524461688823,1.01315979484325,-0.302174688762714
"160","4lsMLrPn","Motor Function",75,5,25,70,"Yes to treatment",90,1117.01499999617,5,29,35,43,41,43,19,24,7,20,10,19,17,10,14,5,8,8,7,8,6,6,4,5,6,2,2,2,2,1,1,5.625,5.25,6,1,6,4,1,6,"2",27,4,2,1,7,1,1,1,1,1,2,"76000","English","15","Group fitness instructor (currently unemployed due to coronavirus)",1,1,0,"10",-27.6666666666667,-7.33333333333334,0.165665195111689,0.563629711574528,1.86524461688823,1.01315979484325,-0.302174688762714
"161","4lsMLrPn","Motor Function",75,40,5,55,"No to treatment",90,2197.840000008,0.125,29,35,43,41,43,19,24,7,20,10,19,17,10,14,5,8,8,7,8,6,6,4,5,6,2,2,2,2,1,1,5.625,5.25,6,1,6,4,1,6,"2",27,4,2,1,7,1,1,1,1,1,2,"76000","English","15","Group fitness instructor (currently unemployed due to coronavirus)",1,1,0,"11",7.33333333333334,-27.3333333333333,0.165665195111689,0.563629711574528,1.86524461688823,1.01315979484325,-0.302174688762714
"162","4lsMLrPn","Motor Function",75,15,80,5,"Yes to treatment",90,1907.73500001524,5.33333333333333,29,35,43,41,43,19,24,7,20,10,19,17,10,14,5,8,8,7,8,6,6,4,5,6,2,2,2,2,1,1,5.625,5.25,6,1,6,4,1,6,"2",27,4,2,1,7,1,1,1,1,1,2,"76000","English","15","Group fitness instructor (currently unemployed due to coronavirus)",1,1,0,"12",-17.6666666666667,47.6666666666667,0.165665195111689,0.563629711574528,1.86524461688823,1.01315979484325,-0.302174688762714
"163","4lsMLrPn","Motor Function",75,40,55,5,"Yes to treatment",77,5543.86500001419,1.375,29,35,43,41,43,19,24,7,20,10,19,17,10,14,5,8,8,7,8,6,6,4,5,6,2,2,2,2,1,1,5.625,5.25,6,1,6,4,1,6,"2",27,4,2,1,7,1,1,1,1,1,2,"76000","English","15","Group fitness instructor (currently unemployed due to coronavirus)",1,1,0,"13",7.33333333333334,22.6666666666667,0.165665195111689,0.563629711574528,1.86524461688823,1.01315979484325,-0.302174688762714
"164","4lsMLrPn","Motor Function",75,5,75,20,"Yes to treatment",90,694.285000005038,15,29,35,43,41,43,19,24,7,20,10,19,17,10,14,5,8,8,7,8,6,6,4,5,6,2,2,2,2,1,1,5.625,5.25,6,1,6,4,1,6,"2",27,4,2,1,7,1,1,1,1,1,2,"76000","English","15","Group fitness instructor (currently unemployed due to coronavirus)",1,1,0,"14",-27.6666666666667,42.6666666666667,0.165665195111689,0.563629711574528,1.86524461688823,1.01315979484325,-0.302174688762714
"165","4lsMLrPn","Motor Function",75,45,30,25,"No to treatment",77,1084.2699999921,0.666666666666667,29,35,43,41,43,19,24,7,20,10,19,17,10,14,5,8,8,7,8,6,6,4,5,6,2,2,2,2,1,1,5.625,5.25,6,1,6,4,1,6,"2",27,4,2,1,7,1,1,1,1,1,2,"76000","English","15","Group fitness instructor (currently unemployed due to coronavirus)",1,1,0,"15",12.3333333333333,-2.33333333333334,0.165665195111689,0.563629711574528,1.86524461688823,1.01315979484325,-0.302174688762714
"166","4lsMLrPn","Motor Function",75,10,65,25,"Yes to treatment",77,665.650000009919,6.5,29,35,43,41,43,19,24,7,20,10,19,17,10,14,5,8,8,7,8,6,6,4,5,6,2,2,2,2,1,1,5.625,5.25,6,1,6,4,1,6,"2",27,4,2,1,7,1,1,1,1,1,2,"76000","English","15","Group fitness instructor (currently unemployed due to coronavirus)",1,1,0,"16",-22.6666666666667,32.6666666666667,0.165665195111689,0.563629711574528,1.86524461688823,1.01315979484325,-0.302174688762714
"167","4lsMLrPn","Motor Function",75,35,20,45,"No to treatment",90,1075.90499997605,0.571428571428571,29,35,43,41,43,19,24,7,20,10,19,17,10,14,5,8,8,7,8,6,6,4,5,6,2,2,2,2,1,1,5.625,5.25,6,1,6,4,1,6,"2",27,4,2,1,7,1,1,1,1,1,2,"76000","English","15","Group fitness instructor (currently unemployed due to coronavirus)",1,1,0,"17",2.33333333333334,-12.3333333333333,0.165665195111689,0.563629711574528,1.86524461688823,1.01315979484325,-0.302174688762714
"168","4lsMLrPn","Motor Function",75,55,15,30,"No to treatment",90,677.924999996321,0.272727272727273,29,35,43,41,43,19,24,7,20,10,19,17,10,14,5,8,8,7,8,6,6,4,5,6,2,2,2,2,1,1,5.625,5.25,6,1,6,4,1,6,"2",27,4,2,1,7,1,1,1,1,1,2,"76000","English","15","Group fitness instructor (currently unemployed due to coronavirus)",1,1,0,"18",22.3333333333333,-17.3333333333333,0.165665195111689,0.563629711574528,1.86524461688823,1.01315979484325,-0.302174688762714
"169","4lsMLrPn","Motor Function",75,5,60,35,"Yes to treatment",77,657.934999995632,12,29,35,43,41,43,19,24,7,20,10,19,17,10,14,5,8,8,7,8,6,6,4,5,6,2,2,2,2,1,1,5.625,5.25,6,1,6,4,1,6,"2",27,4,2,1,7,1,1,1,1,1,2,"76000","English","15","Group fitness instructor (currently unemployed due to coronavirus)",1,1,0,"19",-27.6666666666667,27.6666666666667,0.165665195111689,0.563629711574528,1.86524461688823,1.01315979484325,-0.302174688762714
"170","4lsMLrPn","Motor Function",75,65,30,5,"No to treatment",77,793.594999995548,0.461538461538462,29,35,43,41,43,19,24,7,20,10,19,17,10,14,5,8,8,7,8,6,6,4,5,6,2,2,2,2,1,1,5.625,5.25,6,1,6,4,1,6,"2",27,4,2,1,7,1,1,1,1,1,2,"76000","English","15","Group fitness instructor (currently unemployed due to coronavirus)",1,1,0,"20",32.3333333333333,-2.33333333333334,0.165665195111689,0.563629711574528,1.86524461688823,1.01315979484325,-0.302174688762714
"171","4lsMLrPn","Motor Function",75,25,60,15,"Yes to treatment",77,595.414999988861,2.4,29,35,43,41,43,19,24,7,20,10,19,17,10,14,5,8,8,7,8,6,6,4,5,6,2,2,2,2,1,1,5.625,5.25,6,1,6,4,1,6,"2",27,4,2,1,7,1,1,1,1,1,2,"76000","English","15","Group fitness instructor (currently unemployed due to coronavirus)",1,1,0,"21",-7.66666666666666,27.6666666666667,0.165665195111689,0.563629711574528,1.86524461688823,1.01315979484325,-0.302174688762714
"172","4lsMLrPn","Motor Function",75,10,45,45,"Yes to treatment",77,677.640000008978,4.5,29,35,43,41,43,19,24,7,20,10,19,17,10,14,5,8,8,7,8,6,6,4,5,6,2,2,2,2,1,1,5.625,5.25,6,1,6,4,1,6,"2",27,4,2,1,7,1,1,1,1,1,2,"76000","English","15","Group fitness instructor (currently unemployed due to coronavirus)",1,1,0,"22",-22.6666666666667,12.6666666666667,0.165665195111689,0.563629711574528,1.86524461688823,1.01315979484325,-0.302174688762714
"173","4lsMLrPn","Motor Function",75,45,35,20,"No to treatment",90,2130.10000000941,0.777777777777778,29,35,43,41,43,19,24,7,20,10,19,17,10,14,5,8,8,7,8,6,6,4,5,6,2,2,2,2,1,1,5.625,5.25,6,1,6,4,1,6,"2",27,4,2,1,7,1,1,1,1,1,2,"76000","English","15","Group fitness instructor (currently unemployed due to coronavirus)",1,1,0,"23",12.3333333333333,2.66666666666666,0.165665195111689,0.563629711574528,1.86524461688823,1.01315979484325,-0.302174688762714
"174","4lsMLrPn","Motor Function",75,20,5,75,"No to treatment",90,3779.35500000603,0.25,29,35,43,41,43,19,24,7,20,10,19,17,10,14,5,8,8,7,8,6,6,4,5,6,2,2,2,2,1,1,5.625,5.25,6,1,6,4,1,6,"2",27,4,2,1,7,1,1,1,1,1,2,"76000","English","15","Group fitness instructor (currently unemployed due to coronavirus)",1,1,0,"24",-12.6666666666667,-27.3333333333333,0.165665195111689,0.563629711574528,1.86524461688823,1.01315979484325,-0.302174688762714
"175","4lsMLrPn","Motor Function",75,60,20,20,"No to treatment",77,1738.83499999647,0.333333333333333,29,35,43,41,43,19,24,7,20,10,19,17,10,14,5,8,8,7,8,6,6,4,5,6,2,2,2,2,1,1,5.625,5.25,6,1,6,4,1,6,"2",27,4,2,1,7,1,1,1,1,1,2,"76000","English","15","Group fitness instructor (currently unemployed due to coronavirus)",1,1,0,"25",27.3333333333333,-12.3333333333333,0.165665195111689,0.563629711574528,1.86524461688823,1.01315979484325,-0.302174688762714
"176","4lsMLrPn","Motor Function",75,35,40,25,"Yes to treatment",90,1116.00499998895,1.14285714285714,29,35,43,41,43,19,24,7,20,10,19,17,10,14,5,8,8,7,8,6,6,4,5,6,2,2,2,2,1,1,5.625,5.25,6,1,6,4,1,6,"2",27,4,2,1,7,1,1,1,1,1,2,"76000","English","15","Group fitness instructor (currently unemployed due to coronavirus)",1,1,0,"26",2.33333333333334,7.66666666666666,0.165665195111689,0.563629711574528,1.86524461688823,1.01315979484325,-0.302174688762714
"177","4lsMLrPn","Motor Function",75,20,5,75,"No to treatment",77,812.704999989364,0.25,29,35,43,41,43,19,24,7,20,10,19,17,10,14,5,8,8,7,8,6,6,4,5,6,2,2,2,2,1,1,5.625,5.25,6,1,6,4,1,6,"2",27,4,2,1,7,1,1,1,1,1,2,"76000","English","15","Group fitness instructor (currently unemployed due to coronavirus)",1,1,0,"27",-12.6666666666667,-27.3333333333333,0.165665195111689,0.563629711574528,1.86524461688823,1.01315979484325,-0.302174688762714
"178","4lsMLrPn","Motor Function",75,55,15,30,"No to treatment",77,1235.97000000882,0.272727272727273,29,35,43,41,43,19,24,7,20,10,19,17,10,14,5,8,8,7,8,6,6,4,5,6,2,2,2,2,1,1,5.625,5.25,6,1,6,4,1,6,"2",27,4,2,1,7,1,1,1,1,1,2,"76000","English","15","Group fitness instructor (currently unemployed due to coronavirus)",1,1,0,"28",22.3333333333333,-17.3333333333333,0.165665195111689,0.563629711574528,1.86524461688823,1.01315979484325,-0.302174688762714
"179","4lsMLrPn","Motor Function",75,45,50,5,"Yes to treatment",90,609.125000017229,1.11111111111111,29,35,43,41,43,19,24,7,20,10,19,17,10,14,5,8,8,7,8,6,6,4,5,6,2,2,2,2,1,1,5.625,5.25,6,1,6,4,1,6,"2",27,4,2,1,7,1,1,1,1,1,2,"76000","English","15","Group fitness instructor (currently unemployed due to coronavirus)",1,1,0,"29",12.3333333333333,17.6666666666667,0.165665195111689,0.563629711574528,1.86524461688823,1.01315979484325,-0.302174688762714
"180","4lsMLrPn","Motor Function",75,30,35,35,"No to treatment",77,1141.76499997848,1.16666666666667,29,35,43,41,43,19,24,7,20,10,19,17,10,14,5,8,8,7,8,6,6,4,5,6,2,2,2,2,1,1,5.625,5.25,6,1,6,4,1,6,"2",27,4,2,1,7,1,1,1,1,1,2,"76000","English","15","Group fitness instructor (currently unemployed due to coronavirus)",1,1,0,"30",-2.66666666666666,2.66666666666666,0.165665195111689,0.563629711574528,1.86524461688823,1.01315979484325,-0.302174688762714
"181","4lsMLrPn","Motor Function",75,55,35,10,"No to treatment",77,2850.78499998781,0.636363636363636,29,35,43,41,43,19,24,7,20,10,19,17,10,14,5,8,8,7,8,6,6,4,5,6,2,2,2,2,1,1,5.625,5.25,6,1,6,4,1,6,"2",27,4,2,1,7,1,1,1,1,1,2,"76000","English","15","Group fitness instructor (currently unemployed due to coronavirus)",1,1,0,"31",22.3333333333333,2.66666666666666,0.165665195111689,0.563629711574528,1.86524461688823,1.01315979484325,-0.302174688762714
"182","4lsMLrPn","Motor Function",75,25,25,50,"No to treatment",90,1292.50000001048,1,29,35,43,41,43,19,24,7,20,10,19,17,10,14,5,8,8,7,8,6,6,4,5,6,2,2,2,2,1,1,5.625,5.25,6,1,6,4,1,6,"2",27,4,2,1,7,1,1,1,1,1,2,"76000","English","15","Group fitness instructor (currently unemployed due to coronavirus)",1,1,0,"32",-7.66666666666666,-7.33333333333334,0.165665195111689,0.563629711574528,1.86524461688823,1.01315979484325,-0.302174688762714
"183","4lsMLrPn","Motor Function",75,5,60,35,"Yes to treatment",90,840.984999987995,12,29,35,43,41,43,19,24,7,20,10,19,17,10,14,5,8,8,7,8,6,6,4,5,6,2,2,2,2,1,1,5.625,5.25,6,1,6,4,1,6,"2",27,4,2,1,7,1,1,1,1,1,2,"76000","English","15","Group fitness instructor (currently unemployed due to coronavirus)",1,1,0,"33",-27.6666666666667,27.6666666666667,0.165665195111689,0.563629711574528,1.86524461688823,1.01315979484325,-0.302174688762714
"184","4lsMLrPn","Motor Function",75,30,35,35,"Yes to treatment",90,1168.83000000962,1.16666666666667,29,35,43,41,43,19,24,7,20,10,19,17,10,14,5,8,8,7,8,6,6,4,5,6,2,2,2,2,1,1,5.625,5.25,6,1,6,4,1,6,"2",27,4,2,1,7,1,1,1,1,1,2,"76000","English","15","Group fitness instructor (currently unemployed due to coronavirus)",1,1,0,"34",-2.66666666666666,2.66666666666666,0.165665195111689,0.563629711574528,1.86524461688823,1.01315979484325,-0.302174688762714
"185","4lsMLrPn","Motor Function",75,5,10,85,"Yes to treatment",90,1660.7199999853,2,29,35,43,41,43,19,24,7,20,10,19,17,10,14,5,8,8,7,8,6,6,4,5,6,2,2,2,2,1,1,5.625,5.25,6,1,6,4,1,6,"2",27,4,2,1,7,1,1,1,1,1,2,"76000","English","15","Group fitness instructor (currently unemployed due to coronavirus)",1,1,0,"35",-27.6666666666667,-22.3333333333333,0.165665195111689,0.563629711574528,1.86524461688823,1.01315979484325,-0.302174688762714
"186","4lsMLrPn","Motor Function",75,60,20,20,"No to treatment",77,1039.92000001017,0.333333333333333,29,35,43,41,43,19,24,7,20,10,19,17,10,14,5,8,8,7,8,6,6,4,5,6,2,2,2,2,1,1,5.625,5.25,6,1,6,4,1,6,"2",27,4,2,1,7,1,1,1,1,1,2,"76000","English","15","Group fitness instructor (currently unemployed due to coronavirus)",1,1,0,"36",27.3333333333333,-12.3333333333333,0.165665195111689,0.563629711574528,1.86524461688823,1.01315979484325,-0.302174688762714
"187","4lsMLrPn","Motor Function",75,60,20,20,"No to treatment",77,840.505000000121,0.333333333333333,29,35,43,41,43,19,24,7,20,10,19,17,10,14,5,8,8,7,8,6,6,4,5,6,2,2,2,2,1,1,5.625,5.25,6,1,6,4,1,6,"2",27,4,2,1,7,1,1,1,1,1,2,"76000","English","15","Group fitness instructor (currently unemployed due to coronavirus)",1,1,0,"37",27.3333333333333,-12.3333333333333,0.165665195111689,0.563629711574528,1.86524461688823,1.01315979484325,-0.302174688762714
"188","4lsMLrPn","Motor Function",75,45,35,20,"No to treatment",77,1778.42499999679,0.777777777777778,29,35,43,41,43,19,24,7,20,10,19,17,10,14,5,8,8,7,8,6,6,4,5,6,2,2,2,2,1,1,5.625,5.25,6,1,6,4,1,6,"2",27,4,2,1,7,1,1,1,1,1,2,"76000","English","15","Group fitness instructor (currently unemployed due to coronavirus)",1,1,0,"38",12.3333333333333,2.66666666666666,0.165665195111689,0.563629711574528,1.86524461688823,1.01315979484325,-0.302174688762714
"189","4lsMLrPn","Motor Function",75,65,30,5,"No to treatment",77,915.884999994887,0.461538461538462,29,35,43,41,43,19,24,7,20,10,19,17,10,14,5,8,8,7,8,6,6,4,5,6,2,2,2,2,1,1,5.625,5.25,6,1,6,4,1,6,"2",27,4,2,1,7,1,1,1,1,1,2,"76000","English","15","Group fitness instructor (currently unemployed due to coronavirus)",1,1,0,"39",32.3333333333333,-2.33333333333334,0.165665195111689,0.563629711574528,1.86524461688823,1.01315979484325,-0.302174688762714
"190","4lsMLrPn","Motor Function",75,55,25,20,"No to treatment",90,698.139999993145,0.454545454545455,29,35,43,41,43,19,24,7,20,10,19,17,10,14,5,8,8,7,8,6,6,4,5,6,2,2,2,2,1,1,5.625,5.25,6,1,6,4,1,6,"2",27,4,2,1,7,1,1,1,1,1,2,"76000","English","15","Group fitness instructor (currently unemployed due to coronavirus)",1,1,0,"40",22.3333333333333,-7.33333333333334,0.165665195111689,0.563629711574528,1.86524461688823,1.01315979484325,-0.302174688762714
"191","4lsMLrPn","Motor Function",75,70,15,15,"No to treatment",77,977.744999981951,0.214285714285714,29,35,43,41,43,19,24,7,20,10,19,17,10,14,5,8,8,7,8,6,6,4,5,6,2,2,2,2,1,1,5.625,5.25,6,1,6,4,1,6,"2",27,4,2,1,7,1,1,1,1,1,2,"76000","English","15","Group fitness instructor (currently unemployed due to coronavirus)",1,1,0,"41",37.3333333333333,-17.3333333333333,0.165665195111689,0.563629711574528,1.86524461688823,1.01315979484325,-0.302174688762714
"192","4lsMLrPn","Motor Function",75,15,20,65,"Yes to treatment",77,1222.99500001827,1.33333333333333,29,35,43,41,43,19,24,7,20,10,19,17,10,14,5,8,8,7,8,6,6,4,5,6,2,2,2,2,1,1,5.625,5.25,6,1,6,4,1,6,"2",27,4,2,1,7,1,1,1,1,1,2,"76000","English","15","Group fitness instructor (currently unemployed due to coronavirus)",1,1,0,"42",-17.6666666666667,-12.3333333333333,0.165665195111689,0.563629711574528,1.86524461688823,1.01315979484325,-0.302174688762714
"193","4lsMLrPn","Motor Function",75,55,15,30,"No to treatment",77,892.870000010589,0.272727272727273,29,35,43,41,43,19,24,7,20,10,19,17,10,14,5,8,8,7,8,6,6,4,5,6,2,2,2,2,1,1,5.625,5.25,6,1,6,4,1,6,"2",27,4,2,1,7,1,1,1,1,1,2,"76000","English","15","Group fitness instructor (currently unemployed due to coronavirus)",1,1,0,"43",22.3333333333333,-17.3333333333333,0.165665195111689,0.563629711574528,1.86524461688823,1.01315979484325,-0.302174688762714
"194","4lsMLrPn","Motor Function",75,55,15,30,"No to treatment",90,1299.43000001367,0.272727272727273,29,35,43,41,43,19,24,7,20,10,19,17,10,14,5,8,8,7,8,6,6,4,5,6,2,2,2,2,1,1,5.625,5.25,6,1,6,4,1,6,"2",27,4,2,1,7,1,1,1,1,1,2,"76000","English","15","Group fitness instructor (currently unemployed due to coronavirus)",1,1,0,"44",22.3333333333333,-17.3333333333333,0.165665195111689,0.563629711574528,1.86524461688823,1.01315979484325,-0.302174688762714
"195","4lsMLrPn","Motor Function",75,40,35,25,"No to treatment",90,822.155000001658,0.875,29,35,43,41,43,19,24,7,20,10,19,17,10,14,5,8,8,7,8,6,6,4,5,6,2,2,2,2,1,1,5.625,5.25,6,1,6,4,1,6,"2",27,4,2,1,7,1,1,1,1,1,2,"76000","English","15","Group fitness instructor (currently unemployed due to coronavirus)",1,1,0,"45",7.33333333333334,2.66666666666666,0.165665195111689,0.563629711574528,1.86524461688823,1.01315979484325,-0.302174688762714
"196","4lsMLrPn","Motor Function",75,35,15,50,"No to treatment",77,738.699999987148,0.428571428571429,29,35,43,41,43,19,24,7,20,10,19,17,10,14,5,8,8,7,8,6,6,4,5,6,2,2,2,2,1,1,5.625,5.25,6,1,6,4,1,6,"2",27,4,2,1,7,1,1,1,1,1,2,"76000","English","15","Group fitness instructor (currently unemployed due to coronavirus)",1,1,0,"46",2.33333333333334,-17.3333333333333,0.165665195111689,0.563629711574528,1.86524461688823,1.01315979484325,-0.302174688762714
"197","4lsMLrPn","Motor Function",75,10,25,65,"Yes to treatment",90,1840.95000001253,2.5,29,35,43,41,43,19,24,7,20,10,19,17,10,14,5,8,8,7,8,6,6,4,5,6,2,2,2,2,1,1,5.625,5.25,6,1,6,4,1,6,"2",27,4,2,1,7,1,1,1,1,1,2,"76000","English","15","Group fitness instructor (currently unemployed due to coronavirus)",1,1,0,"47",-22.6666666666667,-7.33333333333334,0.165665195111689,0.563629711574528,1.86524461688823,1.01315979484325,-0.302174688762714
"198","4lsMLrPn","Motor Function",75,25,70,5,"Yes to treatment",77,603.52000000421,2.8,29,35,43,41,43,19,24,7,20,10,19,17,10,14,5,8,8,7,8,6,6,4,5,6,2,2,2,2,1,1,5.625,5.25,6,1,6,4,1,6,"2",27,4,2,1,7,1,1,1,1,1,2,"76000","English","15","Group fitness instructor (currently unemployed due to coronavirus)",1,1,0,"48",-7.66666666666666,37.6666666666667,0.165665195111689,0.563629711574528,1.86524461688823,1.01315979484325,-0.302174688762714
"199","4lsMLrPn","Motor Function",75,5,80,15,"Yes to treatment",77,700.424999988172,16,29,35,43,41,43,19,24,7,20,10,19,17,10,14,5,8,8,7,8,6,6,4,5,6,2,2,2,2,1,1,5.625,5.25,6,1,6,4,1,6,"2",27,4,2,1,7,1,1,1,1,1,2,"76000","English","15","Group fitness instructor (currently unemployed due to coronavirus)",1,1,0,"49",-27.6666666666667,47.6666666666667,0.165665195111689,0.563629711574528,1.86524461688823,1.01315979484325,-0.302174688762714
"200","4lsMLrPn","Motor Function",75,50,20,30,"No to treatment",77,1801.15499999374,0.4,29,35,43,41,43,19,24,7,20,10,19,17,10,14,5,8,8,7,8,6,6,4,5,6,2,2,2,2,1,1,5.625,5.25,6,1,6,4,1,6,"2",27,4,2,1,7,1,1,1,1,1,2,"76000","English","15","Group fitness instructor (currently unemployed due to coronavirus)",1,1,0,"50",17.3333333333333,-12.3333333333333,0.165665195111689,0.563629711574528,1.86524461688823,1.01315979484325,-0.302174688762714
"201","4lsMLrPn","Motor Function",75,65,15,20,"No to treatment",90,861.559999990277,0.230769230769231,29,35,43,41,43,19,24,7,20,10,19,17,10,14,5,8,8,7,8,6,6,4,5,6,2,2,2,2,1,1,5.625,5.25,6,1,6,4,1,6,"2",27,4,2,1,7,1,1,1,1,1,2,"76000","English","15","Group fitness instructor (currently unemployed due to coronavirus)",1,1,0,"51",32.3333333333333,-17.3333333333333,0.165665195111689,0.563629711574528,1.86524461688823,1.01315979484325,-0.302174688762714
"202","4lsMLrPn","Motor Function",75,35,5,60,"No to treatment",77,638.024999992922,0.142857142857143,29,35,43,41,43,19,24,7,20,10,19,17,10,14,5,8,8,7,8,6,6,4,5,6,2,2,2,2,1,1,5.625,5.25,6,1,6,4,1,6,"2",27,4,2,1,7,1,1,1,1,1,2,"76000","English","15","Group fitness instructor (currently unemployed due to coronavirus)",1,1,0,"52",2.33333333333334,-27.3333333333333,0.165665195111689,0.563629711574528,1.86524461688823,1.01315979484325,-0.302174688762714
"203","4lsMLrPn","Motor Function",75,30,20,50,"No to treatment",90,797.669999999925,0.666666666666667,29,35,43,41,43,19,24,7,20,10,19,17,10,14,5,8,8,7,8,6,6,4,5,6,2,2,2,2,1,1,5.625,5.25,6,1,6,4,1,6,"2",27,4,2,1,7,1,1,1,1,1,2,"76000","English","15","Group fitness instructor (currently unemployed due to coronavirus)",1,1,0,"53",-2.66666666666666,-12.3333333333333,0.165665195111689,0.563629711574528,1.86524461688823,1.01315979484325,-0.302174688762714
"204","4lsMLrPn","Motor Function",75,25,60,15,"Yes to treatment",90,820.899999991525,2.4,29,35,43,41,43,19,24,7,20,10,19,17,10,14,5,8,8,7,8,6,6,4,5,6,2,2,2,2,1,1,5.625,5.25,6,1,6,4,1,6,"2",27,4,2,1,7,1,1,1,1,1,2,"76000","English","15","Group fitness instructor (currently unemployed due to coronavirus)",1,1,0,"54",-7.66666666666666,27.6666666666667,0.165665195111689,0.563629711574528,1.86524461688823,1.01315979484325,-0.302174688762714
"205","4lsMLrPn","Motor Function",75,35,10,55,"No to treatment",90,738.450000004377,0.285714285714286,29,35,43,41,43,19,24,7,20,10,19,17,10,14,5,8,8,7,8,6,6,4,5,6,2,2,2,2,1,1,5.625,5.25,6,1,6,4,1,6,"2",27,4,2,1,7,1,1,1,1,1,2,"76000","English","15","Group fitness instructor (currently unemployed due to coronavirus)",1,1,0,"55",2.33333333333334,-22.3333333333333,0.165665195111689,0.563629711574528,1.86524461688823,1.01315979484325,-0.302174688762714
"206","4lsMLrPn","Motor Function",75,55,10,35,"No to treatment",90,721.374999993714,0.181818181818182,29,35,43,41,43,19,24,7,20,10,19,17,10,14,5,8,8,7,8,6,6,4,5,6,2,2,2,2,1,1,5.625,5.25,6,1,6,4,1,6,"2",27,4,2,1,7,1,1,1,1,1,2,"76000","English","15","Group fitness instructor (currently unemployed due to coronavirus)",1,1,0,"56",22.3333333333333,-22.3333333333333,0.165665195111689,0.563629711574528,1.86524461688823,1.01315979484325,-0.302174688762714
"207","4lsMLrPn","Motor Function",75,25,25,50,"Yes to treatment",77,2996.18499999633,1,29,35,43,41,43,19,24,7,20,10,19,17,10,14,5,8,8,7,8,6,6,4,5,6,2,2,2,2,1,1,5.625,5.25,6,1,6,4,1,6,"2",27,4,2,1,7,1,1,1,1,1,2,"76000","English","15","Group fitness instructor (currently unemployed due to coronavirus)",1,1,0,"57",-7.66666666666666,-7.33333333333334,0.165665195111689,0.563629711574528,1.86524461688823,1.01315979484325,-0.302174688762714
"208","4lsMLrPn","Motor Function",75,40,10,50,"No to treatment",77,620.610000012675,0.25,29,35,43,41,43,19,24,7,20,10,19,17,10,14,5,8,8,7,8,6,6,4,5,6,2,2,2,2,1,1,5.625,5.25,6,1,6,4,1,6,"2",27,4,2,1,7,1,1,1,1,1,2,"76000","English","15","Group fitness instructor (currently unemployed due to coronavirus)",1,1,0,"58",7.33333333333334,-22.3333333333333,0.165665195111689,0.563629711574528,1.86524461688823,1.01315979484325,-0.302174688762714
"209","4lsMLrPn","Motor Function",75,65,15,20,"No to treatment",90,778.630000015255,0.230769230769231,29,35,43,41,43,19,24,7,20,10,19,17,10,14,5,8,8,7,8,6,6,4,5,6,2,2,2,2,1,1,5.625,5.25,6,1,6,4,1,6,"2",27,4,2,1,7,1,1,1,1,1,2,"76000","English","15","Group fitness instructor (currently unemployed due to coronavirus)",1,1,0,"59",32.3333333333333,-17.3333333333333,0.165665195111689,0.563629711574528,1.86524461688823,1.01315979484325,-0.302174688762714
"210","4lsMLrPn","Motor Function",75,25,5,70,"No to treatment",90,843.449999985751,0.2,29,35,43,41,43,19,24,7,20,10,19,17,10,14,5,8,8,7,8,6,6,4,5,6,2,2,2,2,1,1,5.625,5.25,6,1,6,4,1,6,"2",27,4,2,1,7,1,1,1,1,1,2,"76000","English","15","Group fitness instructor (currently unemployed due to coronavirus)",1,1,0,"60",-7.66666666666666,-27.3333333333333,0.165665195111689,0.563629711574528,1.86524461688823,1.01315979484325,-0.302174688762714
"211","4lsMLrPn","Motor Function",75,35,20,45,"No to treatment",90,907.130000006873,0.571428571428571,29,35,43,41,43,19,24,7,20,10,19,17,10,14,5,8,8,7,8,6,6,4,5,6,2,2,2,2,1,1,5.625,5.25,6,1,6,4,1,6,"2",27,4,2,1,7,1,1,1,1,1,2,"76000","English","15","Group fitness instructor (currently unemployed due to coronavirus)",1,1,0,"61",2.33333333333334,-12.3333333333333,0.165665195111689,0.563629711574528,1.86524461688823,1.01315979484325,-0.302174688762714
"212","4lsMLrPn","Motor Function",75,50,30,20,"No to treatment",90,1891.00000000326,0.6,29,35,43,41,43,19,24,7,20,10,19,17,10,14,5,8,8,7,8,6,6,4,5,6,2,2,2,2,1,1,5.625,5.25,6,1,6,4,1,6,"2",27,4,2,1,7,1,1,1,1,1,2,"76000","English","15","Group fitness instructor (currently unemployed due to coronavirus)",1,1,0,"62",17.3333333333333,-2.33333333333334,0.165665195111689,0.563629711574528,1.86524461688823,1.01315979484325,-0.302174688762714
"213","4lsMLrPn","Motor Function",75,5,35,60,"Yes to treatment",90,820.709999999963,7,29,35,43,41,43,19,24,7,20,10,19,17,10,14,5,8,8,7,8,6,6,4,5,6,2,2,2,2,1,1,5.625,5.25,6,1,6,4,1,6,"2",27,4,2,1,7,1,1,1,1,1,2,"76000","English","15","Group fitness instructor (currently unemployed due to coronavirus)",1,1,0,"63",-27.6666666666667,2.66666666666666,0.165665195111689,0.563629711574528,1.86524461688823,1.01315979484325,-0.302174688762714
"214","4lsMLrPn","Motor Function",75,10,30,60,"Yes to treatment",77,3611.15499999141,3,29,35,43,41,43,19,24,7,20,10,19,17,10,14,5,8,8,7,8,6,6,4,5,6,2,2,2,2,1,1,5.625,5.25,6,1,6,4,1,6,"2",27,4,2,1,7,1,1,1,1,1,2,"76000","English","15","Group fitness instructor (currently unemployed due to coronavirus)",1,1,0,"64",-22.6666666666667,-2.33333333333334,0.165665195111689,0.563629711574528,1.86524461688823,1.01315979484325,-0.302174688762714
"215","4lsMLrPn","Motor Function",75,25,55,20,"Yes to treatment",77,633.024999988265,2.2,29,35,43,41,43,19,24,7,20,10,19,17,10,14,5,8,8,7,8,6,6,4,5,6,2,2,2,2,1,1,5.625,5.25,6,1,6,4,1,6,"2",27,4,2,1,7,1,1,1,1,1,2,"76000","English","15","Group fitness instructor (currently unemployed due to coronavirus)",1,1,0,"65",-7.66666666666666,22.6666666666667,0.165665195111689,0.563629711574528,1.86524461688823,1.01315979484325,-0.302174688762714
"216","4lsMLrPn","Motor Function",75,50,15,35,"No to treatment",77,809.634999983246,0.3,29,35,43,41,43,19,24,7,20,10,19,17,10,14,5,8,8,7,8,6,6,4,5,6,2,2,2,2,1,1,5.625,5.25,6,1,6,4,1,6,"2",27,4,2,1,7,1,1,1,1,1,2,"76000","English","15","Group fitness instructor (currently unemployed due to coronavirus)",1,1,0,"66",17.3333333333333,-17.3333333333333,0.165665195111689,0.563629711574528,1.86524461688823,1.01315979484325,-0.302174688762714
"217","4lsMLrPn","Motor Function",75,30,10,60,"No to treatment",90,660.41499999119,0.333333333333333,29,35,43,41,43,19,24,7,20,10,19,17,10,14,5,8,8,7,8,6,6,4,5,6,2,2,2,2,1,1,5.625,5.25,6,1,6,4,1,6,"2",27,4,2,1,7,1,1,1,1,1,2,"76000","English","15","Group fitness instructor (currently unemployed due to coronavirus)",1,1,0,"67",-2.66666666666666,-22.3333333333333,0.165665195111689,0.563629711574528,1.86524461688823,1.01315979484325,-0.302174688762714
"218","4lsMLrPn","Motor Function",75,25,15,60,"No to treatment",90,2045.28999998001,0.6,29,35,43,41,43,19,24,7,20,10,19,17,10,14,5,8,8,7,8,6,6,4,5,6,2,2,2,2,1,1,5.625,5.25,6,1,6,4,1,6,"2",27,4,2,1,7,1,1,1,1,1,2,"76000","English","15","Group fitness instructor (currently unemployed due to coronavirus)",1,1,0,"68",-7.66666666666666,-17.3333333333333,0.165665195111689,0.563629711574528,1.86524461688823,1.01315979484325,-0.302174688762714
"219","4lsMLrPn","Motor Function",75,15,60,25,"Yes to treatment",77,507.074999972247,4,29,35,43,41,43,19,24,7,20,10,19,17,10,14,5,8,8,7,8,6,6,4,5,6,2,2,2,2,1,1,5.625,5.25,6,1,6,4,1,6,"2",27,4,2,1,7,1,1,1,1,1,2,"76000","English","15","Group fitness instructor (currently unemployed due to coronavirus)",1,1,0,"69",-17.6666666666667,27.6666666666667,0.165665195111689,0.563629711574528,1.86524461688823,1.01315979484325,-0.302174688762714
"220","4lsMLrPn","Motor Function",75,35,40,25,"Yes to treatment",90,918.765000009444,1.14285714285714,29,35,43,41,43,19,24,7,20,10,19,17,10,14,5,8,8,7,8,6,6,4,5,6,2,2,2,2,1,1,5.625,5.25,6,1,6,4,1,6,"2",27,4,2,1,7,1,1,1,1,1,2,"76000","English","15","Group fitness instructor (currently unemployed due to coronavirus)",1,1,0,"70",2.33333333333334,7.66666666666666,0.165665195111689,0.563629711574528,1.86524461688823,1.01315979484325,-0.302174688762714
"221","4lsMLrPn","Motor Function",75,15,70,15,"Yes to treatment",90,895.660000009229,4.66666666666667,29,35,43,41,43,19,24,7,20,10,19,17,10,14,5,8,8,7,8,6,6,4,5,6,2,2,2,2,1,1,5.625,5.25,6,1,6,4,1,6,"2",27,4,2,1,7,1,1,1,1,1,2,"76000","English","15","Group fitness instructor (currently unemployed due to coronavirus)",1,1,0,"71",-17.6666666666667,37.6666666666667,0.165665195111689,0.563629711574528,1.86524461688823,1.01315979484325,-0.302174688762714
"222","4lsMLrPn","Motor Function",75,35,10,55,"No to treatment",77,830.849999998463,0.285714285714286,29,35,43,41,43,19,24,7,20,10,19,17,10,14,5,8,8,7,8,6,6,4,5,6,2,2,2,2,1,1,5.625,5.25,6,1,6,4,1,6,"2",27,4,2,1,7,1,1,1,1,1,2,"76000","English","15","Group fitness instructor (currently unemployed due to coronavirus)",1,1,0,"72",2.33333333333334,-22.3333333333333,0.165665195111689,0.563629711574528,1.86524461688823,1.01315979484325,-0.302174688762714
"223","4lsMLrPn","Motor Function",75,10,55,35,"Yes to treatment",77,583.214999991469,5.5,29,35,43,41,43,19,24,7,20,10,19,17,10,14,5,8,8,7,8,6,6,4,5,6,2,2,2,2,1,1,5.625,5.25,6,1,6,4,1,6,"2",27,4,2,1,7,1,1,1,1,1,2,"76000","English","15","Group fitness instructor (currently unemployed due to coronavirus)",1,1,0,"73",-22.6666666666667,22.6666666666667,0.165665195111689,0.563629711574528,1.86524461688823,1.01315979484325,-0.302174688762714
"224","4lsMLrPn","Motor Function",75,15,5,80,"No to treatment",77,841.810000012629,0.333333333333333,29,35,43,41,43,19,24,7,20,10,19,17,10,14,5,8,8,7,8,6,6,4,5,6,2,2,2,2,1,1,5.625,5.25,6,1,6,4,1,6,"2",27,4,2,1,7,1,1,1,1,1,2,"76000","English","15","Group fitness instructor (currently unemployed due to coronavirus)",1,1,0,"74",-17.6666666666667,-27.3333333333333,0.165665195111689,0.563629711574528,1.86524461688823,1.01315979484325,-0.302174688762714
"225","4lsMLrPn","Motor Function",75,30,40,30,"Yes to treatment",77,1153.9000000048,1.33333333333333,29,35,43,41,43,19,24,7,20,10,19,17,10,14,5,8,8,7,8,6,6,4,5,6,2,2,2,2,1,1,5.625,5.25,6,1,6,4,1,6,"2",27,4,2,1,7,1,1,1,1,1,2,"76000","English","15","Group fitness instructor (currently unemployed due to coronavirus)",1,1,0,"75",-2.66666666666666,7.66666666666666,0.165665195111689,0.563629711574528,1.86524461688823,1.01315979484325,-0.302174688762714
"226","8huJxZZ7","Self-control",75,60,15,25,"No to treatment",90,930.335000011837,0.25,38,40,42,34,33,26,23,18,16,4,19,19,26,8,0,8,3,6,6,5,7,4,5,4,3,3,1,3,1,1,5.25,5.5,5,3,1,6,5,2,"2",53,2,2,1,1,3,3,1,6,3,2,"15500","psychology/law","15","remote worker",3,1,0,"1",22.2666666666667,-16,0.277949120296742,0.947116645611576,0.99841570473933,0.99901125069474,-0.948619539051474
"227","8huJxZZ7","Self-control",75,60,5,35,"No to treatment",90,742.639999982202,0.0833333333333333,38,40,42,34,33,26,23,18,16,4,19,19,26,8,0,8,3,6,6,5,7,4,5,4,3,3,1,3,1,1,5.25,5.5,5,3,1,6,5,2,"2",53,2,2,1,1,3,3,1,6,3,2,"15500","psychology/law","15","remote worker",3,1,0,"2",22.2666666666667,-26,0.277949120296742,0.947116645611576,0.99841570473933,0.99901125069474,-0.948619539051474
"228","8huJxZZ7","Self-control",75,45,35,20,"No to treatment",90,768.600000010338,0.777777777777778,38,40,42,34,33,26,23,18,16,4,19,19,26,8,0,8,3,6,6,5,7,4,5,4,3,3,1,3,1,1,5.25,5.5,5,3,1,6,5,2,"2",53,2,2,1,1,3,3,1,6,3,2,"15500","psychology/law","15","remote worker",3,1,0,"3",7.26666666666667,4,0.277949120296742,0.947116645611576,0.99841570473933,0.99901125069474,-0.948619539051474
"229","8huJxZZ7","Self-control",75,65,10,25,"No to treatment",90,1155.77500002109,0.153846153846154,38,40,42,34,33,26,23,18,16,4,19,19,26,8,0,8,3,6,6,5,7,4,5,4,3,3,1,3,1,1,5.25,5.5,5,3,1,6,5,2,"2",53,2,2,1,1,3,3,1,6,3,2,"15500","psychology/law","15","remote worker",3,1,0,"4",27.2666666666667,-21,0.277949120296742,0.947116645611576,0.99841570473933,0.99901125069474,-0.948619539051474
