,rt,stimulus,key_press,image indices,image paths,trial_type,trial_index,time_elapsed,internal_node_id,user_id,condition,condition_per_trial,total_trials,fixation_cross_trial,cognitive_domain_trial,treatment_display,stimulus_path,risk,gain,no_effect,experimental_treatment_selected
0,4702.425000000403,"<p class='lead'> Cognitive Functions and Risk Assessment Task Prototype</p><p> Drexel University, Lab for Cogntive Neuroengineering<p>PI: Dr. John Megdalia</p>",32.0,"[1, 2, 3, 4, 5, 6, 7, 8, 9, 10, 11, 12, 13, 14, 15, 16, 17, 18, 19, 20, 21, 22, 23, 24, 25, 26, 27, 28, 29, 30, 31, 32, 33, 34, 35, 36, 37, 38, 39, 40, 41, 42, 43, 44, 45, 46, 47, 48, 49, 50, 51, 52, 53, 54, 55, 56, 57, 58, 59, 60, 61, 62, 63, 64, 65, 66, 67, 68, 69, 70, 71, 72, 73, 74, 75]","['/static/images/stimulus_img1.png', '/static/images/stimulus_img2.png', '/static/images/stimulus_img3.png', '/static/images/stimulus_img4.png', '/static/images/stimulus_img5.png', '/static/images/stimulus_img6.png', '/static/images/stimulus_img7.png', '/static/images/stimulus_img8.png', '/static/images/stimulus_img9.png', '/static/images/stimulus_img10.png', '/static/images/stimulus_img11.png', '/static/images/stimulus_img12.png', '/static/images/stimulus_img13.png', '/static/images/stimulus_img14.png', '/static/images/stimulus_img15.png', '/static/images/stimulus_img16.png', '/static/images/stimulus_img17.png', '/static/images/stimulus_img18.png', '/static/images/stimulus_img19.png', '/static/images/stimulus_img20.png', '/static/images/stimulus_img21.png', '/static/images/stimulus_img22.png', '/static/images/stimulus_img23.png', '/static/images/stimulus_img24.png', '/static/images/stimulus_img25.png', '/static/images/stimulus_img26.png', '/static/images/stimulus_img27.png', '/static/images/stimulus_img28.png', '/static/images/stimulus_img29.png', '/static/images/stimulus_img30.png', '/static/images/stimulus_img31.png', '/static/images/stimulus_img32.png', '/static/images/stimulus_img33.png', '/static/images/stimulus_img34.png', '/static/images/stimulus_img35.png', '/static/images/stimulus_img36.png', '/static/images/stimulus_img37.png', '/static/images/stimulus_img38.png', '/static/images/stimulus_img39.png', '/static/images/stimulus_img40.png', '/static/images/stimulus_img41.png', '/static/images/stimulus_img42.png', '/static/images/stimulus_img43.png', '/static/images/stimulus_img44.png', '/static/images/stimulus_img45.png', '/static/images/stimulus_img46.png', '/static/images/stimulus_img47.png', '/static/images/stimulus_img48.png', '/static/images/stimulus_img49.png', '/static/images/stimulus_img50.png', '/static/images/stimulus_img51.png', '/static/images/stimulus_img52.png', '/static/images/stimulus_img53.png', '/static/images/stimulus_img54.png', '/static/images/stimulus_img55.png', '/static/images/stimulus_img56.png', '/static/images/stimulus_img57.png', '/static/images/stimulus_img58.png', '/static/images/stimulus_img59.png', '/static/images/stimulus_img60.png', '/static/images/stimulus_img61.png', '/static/images/stimulus_img62.png', '/static/images/stimulus_img63.png', '/static/images/stimulus_img64.png', '/static/images/stimulus_img65.png', '/static/images/stimulus_img66.png', '/static/images/stimulus_img67.png', '/static/images/stimulus_img68.png', '/static/images/stimulus_img69.png', '/static/images/stimulus_img70.png', '/static/images/stimulus_img71.png', '/static/images/stimulus_img72.png', '/static/images/stimulus_img73.png', '/static/images/stimulus_img74.png', '/static/images/stimulus_img75.png']",html-keyboard-response,0,4707,0.0-0.0,IT4PJexb,Self-control,Self-control,75,,,,,,,,
1,18508.389999999963,"<p style='text-align:left;'>We are interested in how you think about the <font color='blue'><b>tradeoffs between risks and benefits</b></font> when treating cognitive deficits.</p><p style='text-align:left;'>We will ask you to consider a few scenarios. You will need to think about whether you would choose to use a technique on a patient or not.</p><p style='text-align:left;'>In the real word, different treatments are associated with different chances of risks and benefits.</p><p style='text-align:left;'>Your task is to indicate whether or not you would recommend one of the treatments based on the chances that it will improve or harm the stated function <i>all else being equal.</i></p><p>Press any key to continue.</p>",32.0,,,html-keyboard-response,1,23217,0.0-1.0,IT4PJexb,Self-control,Self-control,75,,,,,,,,
2,56308.750000000146,"<p style='text-align:left;'><b>Imagine that you are in the position of a physician</b> deciding whether or not to use an experimental treatment for a Self-control dysfunction. </p><p style='text-align:left;'>You will see several cases like this:</p><div style='width:800px;height:200px;margin:0 auto;'><div style='float: left;margin-left:200px;'><p style='font-size:14px;'>Self-control</p><img src='https://neuroethics-task.s3.amazonaws.com/test.png' style='width:150px;height:95px;border: 3px solid #000000;'></img><p class='small'><strong>Option 1</strong></p></div><div style='float:right;margin-right:200px;'><div style='width: 150px; height: 95px; border: 3px solid #000000; font-size:12px; background-color: grey;margin-top:44px;'><p style='text-align: center; margin-top:25%;'>No treatment</p></div><p class='small'><strong>Option 2</strong></p></div></div></div><p style='text-align:left;'>First, you should look at cognitive function shown above the colored rectangle (""Self-control"" in this case), then at the relative amounts of <b><font color='gray'>gray</font></b>, <b><font color='#4169e1'>blue</font></b>, and <font color='#ed713a'><b>orange</b></font> in the trial. The amount of these colors represent the chances that the treatment:</p><div style='margin:auto 0;text-align:left;'><p style='display:inline-block;min-width:45%;'><div style='display:inline-block;background-color:#ed713a;height:27px; width:40px;margin-right: 5px;'></div><b>Worsens</b> the deficit.</p><p style='display:inline-block;min-width:45%;'><div style='display:inline-block;background-color:#808080;height:27px; width:40px;margin-right: 5px;'></div>Has <b>no effect.</b></p><p style='display:inline-block;min-width:45%;'><div style='display:inline-block;background-color:#4169e1;height:27px; width:40px;margin-right: 5px;'></div><b>Cures</b> the deficit.</p></div><p style='text-align:left;'>You should click the <b>'z'</b> key to pick Option 1, and the <b>'m'</b> key to pick Option 2. Sometimes the treatment will be on the left, and sometimes it will be on the right.</p><p style='text-align:left;'>In any case, your task is always to choose between the two Options- to give the  treatment or not.</p>",32.0,,,html-keyboard-response,2,79528,0.0-2.0,IT4PJexb,Self-control,Self-control,75,,,,,,,,
3,3717.9349999996775,"<p style='text-align:left;'>Here is the function that you will consider throughout the task. Please read the symptoms of dysfunction so that you understand the kind of problem a person would have.</p><table style='width:90%;margin:0 auto;margin-bottom:10px;'><tr style='border-bottom: 1px solid #ddd; text-align:center;background-image:linear-gradient(to right, #7474BF, #348AC7); color:white;'><th style='border-right: 1px solid #ddd;'>Function</th><th style='border-left: 1px solid #ddd;'>Symptoms of Dysfunction</th></tr><tr style='text-align: center; border-bottom: 1px solid #ddd;' bgcolor='#e6f2ff'><td style='border-right:1px solid #ddd;'>Self-control</td><td style='border-left:1px solid #ddd;'>The person has trouble controlling their thoughts and impulses</td></tr></table><p style='text-align:left;'>Remember that the amount of each color represents whether the treatment will worsen the deficit, have no effect, or cure the deficit. In the case of Self-control please make sure you understand what consequences the treatment will have:</p><div style='margin:0 auto;text-align:left;'><p style='display:inline-block;min-width:20%;'><div style='display:inline-block;background-color:#ed713a;height:27px; width:40px;margin-right: 5px;'></div><b>Worsens</b> the deficit. The person becomes <b>unable</b> to control their thoughts and impulses.</p><p style='display:inline-block;min-width:20%;'><div style='display:inline-block;background-color:#808080;height:27px; width:40px;margin-right: 5px;'></div>Has <b>no effect.</b> The person <b>still</b> has some trouble controlling their thoughts and impulses.</p><p style='display:inline-block;min-width:20%;'><div style='display:inline-block;background-color:#4169e1;height:27px; width:40px;margin-right: 5px;'></div><b>Cures</b> the deficit. The person becomes <b>able</b> to control their thoughts and impulses.</p></div><p style=text-align:left;>When you begin the task, you will first see a cross on the center of the screen. Next, you will see a reminder of what the colors represent before each trial for a few seconds. Then, you will see the treatment appear on the screen and you should make your choice. You will then proceed through the trials until the task ends.",17.0,,,html-keyboard-response,3,83248,0.0-3.0,IT4PJexb,Self-control,Self-control,75,,,,,,,,
4,490.45999999999185,"<p>After this slide, <strong>the experimental trials will begin. Please do not close the tab or window until you have finished the task.</strong></p>",67.0,,,html-keyboard-response,4,83740,0.0-4.0,IT4PJexb,Self-control,Self-control,75,,,,,,,,
5,,<div style='position:fixed;top:47%;left:49%;text-align:center;font-size:60px;'>+</div>,,,,html-keyboard-response,5,84744,0.0-5.0-0.0,IT4PJexb,Self-control,Self-control,75,True,,,,,,,
6,,<div style='position:relative;min-width: 800px;margin:auto 0;text-align: left;margin-bottom:360px;'><p style='font-size:36px; text-align:center;'>Domain: <strong>Self-control</strong></p><p style='text-align:center;font-size:18px;'>Chances the treatment...</p><p><div style='display:inline-block;background-color:#ed713a;height:27px; width:40px;margin-right: 5px;'></div><b>Worsens</b> the deficit. The person becomes <b>unable</b> to control their thoughts and impulses.</p><p><div style='display:inline-block;background-color:#808080;height:27px; width:40px;margin-right: 5px;'></div>Has <b>no effect.</b> The person <b>still</b> has some trouble controlling their thoughts and impulses.</p><p><div style='display:inline-block;background-color:#4169e1;height:27px; width:40px;margin-right: 5px;'></div><b>Cures</b> the deficit. The person becomes <b>able</b> to control their thoughts and impulses.</p></div><div style='position:fixed;top:47%;left:49%;text-align:center;font-size:60px;'>+</div>,,,,html-keyboard-response,6,87248,0.0-5.0-1.0,IT4PJexb,Self-control,Self-control,75,,True,,,,,,
7,5773.525000000518,<div style='position:relative; min-width:800px; margin-bottom:360px;top:28.8px;'><div style='margin:auto 0;top:0px;text-align:left;'><p style='text-align:center;font-size: 36px;'>Domain: <strong>Self-control</strong></p><p style='text-align:center;font-size: 18px;'>Chances the treatment...</p><p><div style='display:inline-block;background-color:#ed713a;height:27px; width:40px;margin-right: 5px;'></div><b>Worsens</b> the deficit. The person becomes <b>unable</b> to control their thoughts and impulses.</p><p><div style='display:inline-block;background-color:#808080;height:27px; width:40px;margin-right: 5px;'></div>Has <b>no effect.</b> The person <b>still</b> has some trouble controlling their thoughts and impulses.</p><p><div style='display:inline-block;background-color:#4169e1;height:27px; width:40px;margin-right: 5px;'></div><b>Cures</b> the deficit. The person becomes <b>able</b> to control their thoughts and impulses.</p></div><div style='width:800px;margin-top:50px; margin:0 auto;'><div style='float: left;margin-left:225px;'><div style='border: 3px solid #000000;width: 150px; height:95px; background-color: grey;'><p style='text-align: center;margin-top:23%;font-size:14px;font-weight:bold;'>No Treatment</p></div><p class='small'><strong>Option 1</strong></p></div><div style='float: right;margin-right:225px;'><img style='border: 3px solid #000000; width: 150px; height:95px;' src='/static/images/stimulus_img1.png'></img><p class='small'><strong>Option 2</strong></p></div></div></div><div style='position:relative;margin-block-start:0px;margin-block-end:0px;bottom: 160px;'><p style='margin-block-start:0px;margin-block-end:0px;'>Use the 'z' key to select the treatment on the left</p><p style='margin-block-start:0px;margin-block-end:0px;'>Use the 'm' key to select the treatment on the right</p></div>,77.0,,,html-keyboard-response,7,93024,0.0-5.0-2.0,IT4PJexb,Self-control,Self-control,75,,,right,/static/images/stimulus_img1.png,50.0,45.0,5.0,True
8,,,,,,html-keyboard-response,8,93026,0.0-5.0-0.1,IT4PJexb,Self-control,Self-control,75,True,,,,,,,
9,,<div style='position:fixed;top:47%;left:49%;text-align:center;font-size:60px;'>+</div>,,,,html-keyboard-response,9,94027,0.0-5.0-1.1,IT4PJexb,Self-control,Self-control,75,,True,,,,,,
10,947.180000000124,<div style='position:relative; min-width:800px; margin-bottom:360px;top:28.8px;'><div style='margin:auto 0;top:0px;text-align:left;'><p style='text-align:center;font-size: 36px;'>Domain: <strong>Self-control</strong></p><p style='text-align:center;font-size: 18px;'>Chances the treatment...</p><p><div style='display:inline-block;background-color:#ed713a;height:27px; width:40px;margin-right: 5px;'></div><b>Worsens</b> the deficit. The person becomes <b>unable</b> to control their thoughts and impulses.</p><p><div style='display:inline-block;background-color:#808080;height:27px; width:40px;margin-right: 5px;'></div>Has <b>no effect.</b> The person <b>still</b> has some trouble controlling their thoughts and impulses.</p><p><div style='display:inline-block;background-color:#4169e1;height:27px; width:40px;margin-right: 5px;'></div><b>Cures</b> the deficit. The person becomes <b>able</b> to control their thoughts and impulses.</p></div><div style='width:800px;margin-top:50px; margin:0 auto;'><div style='float: left;margin-left:225px;'><div style='border: 3px solid #000000;width: 150px; height:95px; background-color: grey;'><p style='text-align: center;margin-top:23%;font-size:14px;font-weight:bold;'>No Treatment</p></div><p class='small'><strong>Option 1</strong></p></div><div style='float: right;margin-right:225px;'><img style='border: 3px solid #000000; width: 150px; height:95px;' src='/static/images/stimulus_img2.png'></img><p class='small'><strong>Option 2</strong></p></div></div></div><div style='position:relative;margin-block-start:0px;margin-block-end:0px;bottom: 160px;'><p style='margin-block-start:0px;margin-block-end:0px;'>Use the 'z' key to select the treatment on the left</p><p style='margin-block-start:0px;margin-block-end:0px;'>Use the 'm' key to select the treatment on the right</p></div>,77.0,,,html-keyboard-response,10,94976,0.0-5.0-2.1,IT4PJexb,Self-control,Self-control,75,,,right,/static/images/stimulus_img2.png,60.0,30.0,10.0,True
11,,,,,,html-keyboard-response,11,94977,0.0-5.0-0.2,IT4PJexb,Self-control,Self-control,75,True,,,,,,,
12,,<div style='position:fixed;top:47%;left:49%;text-align:center;font-size:60px;'>+</div>,,,,html-keyboard-response,12,95978,0.0-5.0-1.2,IT4PJexb,Self-control,Self-control,75,,True,,,,,,
13,836.1400000003341,<div style='position:relative; min-width:800px; margin-bottom:360px;top:28.8px;'><div style='margin:auto 0;top:0px;text-align:left;'><p style='text-align:center;font-size: 36px;'>Domain: <strong>Self-control</strong></p><p style='text-align:center;font-size: 18px;'>Chances the treatment...</p><p><div style='display:inline-block;background-color:#ed713a;height:27px; width:40px;margin-right: 5px;'></div><b>Worsens</b> the deficit. The person becomes <b>unable</b> to control their thoughts and impulses.</p><p><div style='display:inline-block;background-color:#808080;height:27px; width:40px;margin-right: 5px;'></div>Has <b>no effect.</b> The person <b>still</b> has some trouble controlling their thoughts and impulses.</p><p><div style='display:inline-block;background-color:#4169e1;height:27px; width:40px;margin-right: 5px;'></div><b>Cures</b> the deficit. The person becomes <b>able</b> to control their thoughts and impulses.</p></div><div style='width:800px;margin-top:50px;margin: 0 auto;'><div style='float: left;margin-left:225px;'><img style='border: 3px solid #000000; width: 150px; height:95px;' src='/static/images/stimulus_img3.png'></img><p class='small'><strong>Option 1</strong></p></div><div style='float: right;margin-right:225px;'><div style=' width: 150px; height:95px; border: 3px solid #000000; background-color: grey;'><p style='text-align: center; margin-top:23%;font-size:14px;font-weight:bold;'>No treatment</p></div><p class='small'><strong>Option 2</strong></p></div></div></div><div style='position:relative;margin-block-start:0px;margin-block-end:0px;bottom: 160px;'><p style='margin-block-start:0px;margin-block-end:0px;'>Use the 'z' key to select the treatment on the left</p><p style='margin-block-start:0px;margin-block-end:0px;'>Use the 'm' key to select the treatment on the right</p></div>,90.0,,,html-keyboard-response,13,96816,0.0-5.0-2.2,IT4PJexb,Self-control,Self-control,75,,,left,/static/images/stimulus_img3.png,15.0,50.0,35.0,True
14,,,,,,html-keyboard-response,14,96817,0.0-5.0-0.3,IT4PJexb,Self-control,Self-control,75,True,,,,,,,
15,,<div style='position:fixed;top:47%;left:49%;text-align:center;font-size:60px;'>+</div>,,,,html-keyboard-response,15,97818,0.0-5.0-1.3,IT4PJexb,Self-control,Self-control,75,,True,,,,,,
16,1061.1650000000664,<div style='position:relative; min-width:800px; margin-bottom:360px;top:28.8px;'><div style='margin:auto 0;top:0px;text-align:left;'><p style='text-align:center;font-size: 36px;'>Domain: <strong>Self-control</strong></p><p style='text-align:center;font-size: 18px;'>Chances the treatment...</p><p><div style='display:inline-block;background-color:#ed713a;height:27px; width:40px;margin-right: 5px;'></div><b>Worsens</b> the deficit. The person becomes <b>unable</b> to control their thoughts and impulses.</p><p><div style='display:inline-block;background-color:#808080;height:27px; width:40px;margin-right: 5px;'></div>Has <b>no effect.</b> The person <b>still</b> has some trouble controlling their thoughts and impulses.</p><p><div style='display:inline-block;background-color:#4169e1;height:27px; width:40px;margin-right: 5px;'></div><b>Cures</b> the deficit. The person becomes <b>able</b> to control their thoughts and impulses.</p></div><div style='width:800px;margin-top:50px;margin: 0 auto;'><div style='float: left;margin-left:225px;'><img style='border: 3px solid #000000; width: 150px; height:95px;' src='/static/images/stimulus_img4.png'></img><p class='small'><strong>Option 1</strong></p></div><div style='float: right;margin-right:225px;'><div style=' width: 150px; height:95px; border: 3px solid #000000; background-color: grey;'><p style='text-align: center; margin-top:23%;font-size:14px;font-weight:bold;'>No treatment</p></div><p class='small'><strong>Option 2</strong></p></div></div></div><div style='position:relative;margin-block-start:0px;margin-block-end:0px;bottom: 160px;'><p style='margin-block-start:0px;margin-block-end:0px;'>Use the 'z' key to select the treatment on the left</p><p style='margin-block-start:0px;margin-block-end:0px;'>Use the 'm' key to select the treatment on the right</p></div>,77.0,,,html-keyboard-response,16,98882,0.0-5.0-2.3,IT4PJexb,Self-control,Self-control,75,,,left,/static/images/stimulus_img4.png,65.0,20.0,15.0,False
17,,,,,,html-keyboard-response,17,98882,0.0-5.0-0.4,IT4PJexb,Self-control,Self-control,75,True,,,,,,,
18,,<div style='position:fixed;top:47%;left:49%;text-align:center;font-size:60px;'>+</div>,,,,html-keyboard-response,18,99883,0.0-5.0-1.4,IT4PJexb,Self-control,Self-control,75,,True,,,,,,
19,762.5199999993056,<div style='position:relative; min-width:800px; margin-bottom:360px;top:28.8px;'><div style='margin:auto 0;top:0px;text-align:left;'><p style='text-align:center;font-size: 36px;'>Domain: <strong>Self-control</strong></p><p style='text-align:center;font-size: 18px;'>Chances the treatment...</p><p><div style='display:inline-block;background-color:#ed713a;height:27px; width:40px;margin-right: 5px;'></div><b>Worsens</b> the deficit. The person becomes <b>unable</b> to control their thoughts and impulses.</p><p><div style='display:inline-block;background-color:#808080;height:27px; width:40px;margin-right: 5px;'></div>Has <b>no effect.</b> The person <b>still</b> has some trouble controlling their thoughts and impulses.</p><p><div style='display:inline-block;background-color:#4169e1;height:27px; width:40px;margin-right: 5px;'></div><b>Cures</b> the deficit. The person becomes <b>able</b> to control their thoughts and impulses.</p></div><div style='width:800px;margin-top:50px; margin:0 auto;'><div style='float: left;margin-left:225px;'><div style='border: 3px solid #000000;width: 150px; height:95px; background-color: grey;'><p style='text-align: center;margin-top:23%;font-size:14px;font-weight:bold;'>No Treatment</p></div><p class='small'><strong>Option 1</strong></p></div><div style='float: right;margin-right:225px;'><img style='border: 3px solid #000000; width: 150px; height:95px;' src='/static/images/stimulus_img5.png'></img><p class='small'><strong>Option 2</strong></p></div></div></div><div style='position:relative;margin-block-start:0px;margin-block-end:0px;bottom: 160px;'><p style='margin-block-start:0px;margin-block-end:0px;'>Use the 'z' key to select the treatment on the left</p><p style='margin-block-start:0px;margin-block-end:0px;'>Use the 'm' key to select the treatment on the right</p></div>,77.0,,,html-keyboard-response,19,100649,0.0-5.0-2.4,IT4PJexb,Self-control,Self-control,75,,,right,/static/images/stimulus_img5.png,25.0,35.0,40.0,True
20,,,,,,html-keyboard-response,20,100650,0.0-5.0-0.5,IT4PJexb,Self-control,Self-control,75,True,,,,,,,
21,,<div style='position:fixed;top:47%;left:49%;text-align:center;font-size:60px;'>+</div>,,,,html-keyboard-response,21,101650,0.0-5.0-1.5,IT4PJexb,Self-control,Self-control,75,,True,,,,,,
22,540.8800000004703,<div style='position:relative; min-width:800px; margin-bottom:360px;top:28.8px;'><div style='margin:auto 0;top:0px;text-align:left;'><p style='text-align:center;font-size: 36px;'>Domain: <strong>Self-control</strong></p><p style='text-align:center;font-size: 18px;'>Chances the treatment...</p><p><div style='display:inline-block;background-color:#ed713a;height:27px; width:40px;margin-right: 5px;'></div><b>Worsens</b> the deficit. The person becomes <b>unable</b> to control their thoughts and impulses.</p><p><div style='display:inline-block;background-color:#808080;height:27px; width:40px;margin-right: 5px;'></div>Has <b>no effect.</b> The person <b>still</b> has some trouble controlling their thoughts and impulses.</p><p><div style='display:inline-block;background-color:#4169e1;height:27px; width:40px;margin-right: 5px;'></div><b>Cures</b> the deficit. The person becomes <b>able</b> to control their thoughts and impulses.</p></div><div style='width:800px;margin-top:50px;margin: 0 auto;'><div style='float: left;margin-left:225px;'><img style='border: 3px solid #000000; width: 150px; height:95px;' src='/static/images/stimulus_img6.png'></img><p class='small'><strong>Option 1</strong></p></div><div style='float: right;margin-right:225px;'><div style=' width: 150px; height:95px; border: 3px solid #000000; background-color: grey;'><p style='text-align: center; margin-top:23%;font-size:14px;font-weight:bold;'>No treatment</p></div><p class='small'><strong>Option 2</strong></p></div></div></div><div style='position:relative;margin-block-start:0px;margin-block-end:0px;bottom: 160px;'><p style='margin-block-start:0px;margin-block-end:0px;'>Use the 'z' key to select the treatment on the left</p><p style='margin-block-start:0px;margin-block-end:0px;'>Use the 'm' key to select the treatment on the right</p></div>,90.0,,,html-keyboard-response,22,102194,0.0-5.0-2.5,IT4PJexb,Self-control,Self-control,75,,,left,/static/images/stimulus_img6.png,15.0,60.0,25.0,True
23,,,,,,html-keyboard-response,23,102194,0.0-5.0-0.6,IT4PJexb,Self-control,Self-control,75,True,,,,,,,
24,,<div style='position:fixed;top:47%;left:49%;text-align:center;font-size:60px;'>+</div>,,,,html-keyboard-response,24,103195,0.0-5.0-1.6,IT4PJexb,Self-control,Self-control,75,,True,,,,,,
25,603.689999999915,<div style='position:relative; min-width:800px; margin-bottom:360px;top:28.8px;'><div style='margin:auto 0;top:0px;text-align:left;'><p style='text-align:center;font-size: 36px;'>Domain: <strong>Self-control</strong></p><p style='text-align:center;font-size: 18px;'>Chances the treatment...</p><p><div style='display:inline-block;background-color:#ed713a;height:27px; width:40px;margin-right: 5px;'></div><b>Worsens</b> the deficit. The person becomes <b>unable</b> to control their thoughts and impulses.</p><p><div style='display:inline-block;background-color:#808080;height:27px; width:40px;margin-right: 5px;'></div>Has <b>no effect.</b> The person <b>still</b> has some trouble controlling their thoughts and impulses.</p><p><div style='display:inline-block;background-color:#4169e1;height:27px; width:40px;margin-right: 5px;'></div><b>Cures</b> the deficit. The person becomes <b>able</b> to control their thoughts and impulses.</p></div><div style='width:800px;margin-top:50px;margin: 0 auto;'><div style='float: left;margin-left:225px;'><img style='border: 3px solid #000000; width: 150px; height:95px;' src='/static/images/stimulus_img7.png'></img><p class='small'><strong>Option 1</strong></p></div><div style='float: right;margin-right:225px;'><div style=' width: 150px; height:95px; border: 3px solid #000000; background-color: grey;'><p style='text-align: center; margin-top:23%;font-size:14px;font-weight:bold;'>No treatment</p></div><p class='small'><strong>Option 2</strong></p></div></div></div><div style='position:relative;margin-block-start:0px;margin-block-end:0px;bottom: 160px;'><p style='margin-block-start:0px;margin-block-end:0px;'>Use the 'z' key to select the treatment on the left</p><p style='margin-block-start:0px;margin-block-end:0px;'>Use the 'm' key to select the treatment on the right</p></div>,90.0,,,html-keyboard-response,25,103801,0.0-5.0-2.6,IT4PJexb,Self-control,Self-control,75,,,left,/static/images/stimulus_img7.png,65.0,5.0,30.0,True
26,,,,,,html-keyboard-response,26,103802,0.0-5.0-0.7,IT4PJexb,Self-control,Self-control,75,True,,,,,,,
27,,<div style='position:fixed;top:47%;left:49%;text-align:center;font-size:60px;'>+</div>,,,,html-keyboard-response,27,104802,0.0-5.0-1.7,IT4PJexb,Self-control,Self-control,75,,True,,,,,,
28,540.7299999997194,<div style='position:relative; min-width:800px; margin-bottom:360px;top:28.8px;'><div style='margin:auto 0;top:0px;text-align:left;'><p style='text-align:center;font-size: 36px;'>Domain: <strong>Self-control</strong></p><p style='text-align:center;font-size: 18px;'>Chances the treatment...</p><p><div style='display:inline-block;background-color:#ed713a;height:27px; width:40px;margin-right: 5px;'></div><b>Worsens</b> the deficit. The person becomes <b>unable</b> to control their thoughts and impulses.</p><p><div style='display:inline-block;background-color:#808080;height:27px; width:40px;margin-right: 5px;'></div>Has <b>no effect.</b> The person <b>still</b> has some trouble controlling their thoughts and impulses.</p><p><div style='display:inline-block;background-color:#4169e1;height:27px; width:40px;margin-right: 5px;'></div><b>Cures</b> the deficit. The person becomes <b>able</b> to control their thoughts and impulses.</p></div><div style='width:800px;margin-top:50px; margin:0 auto;'><div style='float: left;margin-left:225px;'><div style='border: 3px solid #000000;width: 150px; height:95px; background-color: grey;'><p style='text-align: center;margin-top:23%;font-size:14px;font-weight:bold;'>No Treatment</p></div><p class='small'><strong>Option 1</strong></p></div><div style='float: right;margin-right:225px;'><img style='border: 3px solid #000000; width: 150px; height:95px;' src='/static/images/stimulus_img8.png'></img><p class='small'><strong>Option 2</strong></p></div></div></div><div style='position:relative;margin-block-start:0px;margin-block-end:0px;bottom: 160px;'><p style='margin-block-start:0px;margin-block-end:0px;'>Use the 'z' key to select the treatment on the left</p><p style='margin-block-start:0px;margin-block-end:0px;'>Use the 'm' key to select the treatment on the right</p></div>,77.0,,,html-keyboard-response,28,105345,0.0-5.0-2.7,IT4PJexb,Self-control,Self-control,75,,,right,/static/images/stimulus_img8.png,10.0,55.0,35.0,True
29,,,,,,html-keyboard-response,29,105346,0.0-5.0-0.8,IT4PJexb,Self-control,Self-control,75,True,,,,,,,
30,,<div style='position:fixed;top:47%;left:49%;text-align:center;font-size:60px;'>+</div>,,,,html-keyboard-response,30,106346,0.0-5.0-1.8,IT4PJexb,Self-control,Self-control,75,,True,,,,,,
31,756.7400000007183,<div style='position:relative; min-width:800px; margin-bottom:360px;top:28.8px;'><div style='margin:auto 0;top:0px;text-align:left;'><p style='text-align:center;font-size: 36px;'>Domain: <strong>Self-control</strong></p><p style='text-align:center;font-size: 18px;'>Chances the treatment...</p><p><div style='display:inline-block;background-color:#ed713a;height:27px; width:40px;margin-right: 5px;'></div><b>Worsens</b> the deficit. The person becomes <b>unable</b> to control their thoughts and impulses.</p><p><div style='display:inline-block;background-color:#808080;height:27px; width:40px;margin-right: 5px;'></div>Has <b>no effect.</b> The person <b>still</b> has some trouble controlling their thoughts and impulses.</p><p><div style='display:inline-block;background-color:#4169e1;height:27px; width:40px;margin-right: 5px;'></div><b>Cures</b> the deficit. The person becomes <b>able</b> to control their thoughts and impulses.</p></div><div style='width:800px;margin-top:50px; margin:0 auto;'><div style='float: left;margin-left:225px;'><div style='border: 3px solid #000000;width: 150px; height:95px; background-color: grey;'><p style='text-align: center;margin-top:23%;font-size:14px;font-weight:bold;'>No Treatment</p></div><p class='small'><strong>Option 1</strong></p></div><div style='float: right;margin-right:225px;'><img style='border: 3px solid #000000; width: 150px; height:95px;' src='/static/images/stimulus_img9.png'></img><p class='small'><strong>Option 2</strong></p></div></div></div><div style='position:relative;margin-block-start:0px;margin-block-end:0px;bottom: 160px;'><p style='margin-block-start:0px;margin-block-end:0px;'>Use the 'z' key to select the treatment on the left</p><p style='margin-block-start:0px;margin-block-end:0px;'>Use the 'm' key to select the treatment on the right</p></div>,90.0,,,html-keyboard-response,31,107105,0.0-5.0-2.8,IT4PJexb,Self-control,Self-control,75,,,right,/static/images/stimulus_img9.png,65.0,10.0,25.0,False
32,,,,,,html-keyboard-response,32,107106,0.0-5.0-0.9,IT4PJexb,Self-control,Self-control,75,True,,,,,,,
33,,<div style='position:fixed;top:47%;left:49%;text-align:center;font-size:60px;'>+</div>,,,,html-keyboard-response,33,108106,0.0-5.0-1.9,IT4PJexb,Self-control,Self-control,75,,True,,,,,,
34,493.195000000007,<div style='position:relative; min-width:800px; margin-bottom:360px;top:28.8px;'><div style='margin:auto 0;top:0px;text-align:left;'><p style='text-align:center;font-size: 36px;'>Domain: <strong>Self-control</strong></p><p style='text-align:center;font-size: 18px;'>Chances the treatment...</p><p><div style='display:inline-block;background-color:#ed713a;height:27px; width:40px;margin-right: 5px;'></div><b>Worsens</b> the deficit. The person becomes <b>unable</b> to control their thoughts and impulses.</p><p><div style='display:inline-block;background-color:#808080;height:27px; width:40px;margin-right: 5px;'></div>Has <b>no effect.</b> The person <b>still</b> has some trouble controlling their thoughts and impulses.</p><p><div style='display:inline-block;background-color:#4169e1;height:27px; width:40px;margin-right: 5px;'></div><b>Cures</b> the deficit. The person becomes <b>able</b> to control their thoughts and impulses.</p></div><div style='width:800px;margin-top:50px; margin:0 auto;'><div style='float: left;margin-left:225px;'><div style='border: 3px solid #000000;width: 150px; height:95px; background-color: grey;'><p style='text-align: center;margin-top:23%;font-size:14px;font-weight:bold;'>No Treatment</p></div><p class='small'><strong>Option 1</strong></p></div><div style='float: right;margin-right:225px;'><img style='border: 3px solid #000000; width: 150px; height:95px;' src='/static/images/stimulus_img10.png'></img><p class='small'><strong>Option 2</strong></p></div></div></div><div style='position:relative;margin-block-start:0px;margin-block-end:0px;bottom: 160px;'><p style='margin-block-start:0px;margin-block-end:0px;'>Use the 'z' key to select the treatment on the left</p><p style='margin-block-start:0px;margin-block-end:0px;'>Use the 'm' key to select the treatment on the right</p></div>,77.0,,,html-keyboard-response,34,108602,0.0-5.0-2.9,IT4PJexb,Self-control,Self-control,75,,,right,/static/images/stimulus_img10.png,30.0,25.0,45.0,True
35,,,,,,html-keyboard-response,35,108603,0.0-5.0-0.10,IT4PJexb,Self-control,Self-control,75,True,,,,,,,
36,,<div style='position:fixed;top:47%;left:49%;text-align:center;font-size:60px;'>+</div>,,,,html-keyboard-response,36,109604,0.0-5.0-1.10,IT4PJexb,Self-control,Self-control,75,,True,,,,,,
37,747.269999999844,<div style='position:relative; min-width:800px; margin-bottom:360px;top:28.8px;'><div style='margin:auto 0;top:0px;text-align:left;'><p style='text-align:center;font-size: 36px;'>Domain: <strong>Self-control</strong></p><p style='text-align:center;font-size: 18px;'>Chances the treatment...</p><p><div style='display:inline-block;background-color:#ed713a;height:27px; width:40px;margin-right: 5px;'></div><b>Worsens</b> the deficit. The person becomes <b>unable</b> to control their thoughts and impulses.</p><p><div style='display:inline-block;background-color:#808080;height:27px; width:40px;margin-right: 5px;'></div>Has <b>no effect.</b> The person <b>still</b> has some trouble controlling their thoughts and impulses.</p><p><div style='display:inline-block;background-color:#4169e1;height:27px; width:40px;margin-right: 5px;'></div><b>Cures</b> the deficit. The person becomes <b>able</b> to control their thoughts and impulses.</p></div><div style='width:800px;margin-top:50px; margin:0 auto;'><div style='float: left;margin-left:225px;'><div style='border: 3px solid #000000;width: 150px; height:95px; background-color: grey;'><p style='text-align: center;margin-top:23%;font-size:14px;font-weight:bold;'>No Treatment</p></div><p class='small'><strong>Option 1</strong></p></div><div style='float: right;margin-right:225px;'><img style='border: 3px solid #000000; width: 150px; height:95px;' src='/static/images/stimulus_img11.png'></img><p class='small'><strong>Option 2</strong></p></div></div></div><div style='position:relative;margin-block-start:0px;margin-block-end:0px;bottom: 160px;'><p style='margin-block-start:0px;margin-block-end:0px;'>Use the 'z' key to select the treatment on the left</p><p style='margin-block-start:0px;margin-block-end:0px;'>Use the 'm' key to select the treatment on the right</p></div>,90.0,,,html-keyboard-response,37,110354,0.0-5.0-2.10,IT4PJexb,Self-control,Self-control,75,,,right,/static/images/stimulus_img11.png,70.0,15.0,15.0,False
38,,,,,,html-keyboard-response,38,110355,0.0-5.0-0.11,IT4PJexb,Self-control,Self-control,75,True,,,,,,,
39,,<div style='position:fixed;top:47%;left:49%;text-align:center;font-size:60px;'>+</div>,,,,html-keyboard-response,39,111356,0.0-5.0-1.11,IT4PJexb,Self-control,Self-control,75,,True,,,,,,
40,2323.125000000786,<div style='position:relative; min-width:800px; margin-bottom:360px;top:28.8px;'><div style='margin:auto 0;top:0px;text-align:left;'><p style='text-align:center;font-size: 36px;'>Domain: <strong>Self-control</strong></p><p style='text-align:center;font-size: 18px;'>Chances the treatment...</p><p><div style='display:inline-block;background-color:#ed713a;height:27px; width:40px;margin-right: 5px;'></div><b>Worsens</b> the deficit. The person becomes <b>unable</b> to control their thoughts and impulses.</p><p><div style='display:inline-block;background-color:#808080;height:27px; width:40px;margin-right: 5px;'></div>Has <b>no effect.</b> The person <b>still</b> has some trouble controlling their thoughts and impulses.</p><p><div style='display:inline-block;background-color:#4169e1;height:27px; width:40px;margin-right: 5px;'></div><b>Cures</b> the deficit. The person becomes <b>able</b> to control their thoughts and impulses.</p></div><div style='width:800px;margin-top:50px; margin:0 auto;'><div style='float: left;margin-left:225px;'><div style='border: 3px solid #000000;width: 150px; height:95px; background-color: grey;'><p style='text-align: center;margin-top:23%;font-size:14px;font-weight:bold;'>No Treatment</p></div><p class='small'><strong>Option 1</strong></p></div><div style='float: right;margin-right:225px;'><img style='border: 3px solid #000000; width: 150px; height:95px;' src='/static/images/stimulus_img12.png'></img><p class='small'><strong>Option 2</strong></p></div></div></div><div style='position:relative;margin-block-start:0px;margin-block-end:0px;bottom: 160px;'><p style='margin-block-start:0px;margin-block-end:0px;'>Use the 'z' key to select the treatment on the left</p><p style='margin-block-start:0px;margin-block-end:0px;'>Use the 'm' key to select the treatment on the right</p></div>,77.0,,,html-keyboard-response,40,113681,0.0-5.0-2.11,IT4PJexb,Self-control,Self-control,75,,,right,/static/images/stimulus_img12.png,30.0,30.0,40.0,True
41,,,,,,html-keyboard-response,41,113682,0.0-5.0-0.12,IT4PJexb,Self-control,Self-control,75,True,,,,,,,
42,,<div style='position:fixed;top:47%;left:49%;text-align:center;font-size:60px;'>+</div>,,,,html-keyboard-response,42,114683,0.0-5.0-1.12,IT4PJexb,Self-control,Self-control,75,,True,,,,,,
43,796.0000000002765,<div style='position:relative; min-width:800px; margin-bottom:360px;top:28.8px;'><div style='margin:auto 0;top:0px;text-align:left;'><p style='text-align:center;font-size: 36px;'>Domain: <strong>Self-control</strong></p><p style='text-align:center;font-size: 18px;'>Chances the treatment...</p><p><div style='display:inline-block;background-color:#ed713a;height:27px; width:40px;margin-right: 5px;'></div><b>Worsens</b> the deficit. The person becomes <b>unable</b> to control their thoughts and impulses.</p><p><div style='display:inline-block;background-color:#808080;height:27px; width:40px;margin-right: 5px;'></div>Has <b>no effect.</b> The person <b>still</b> has some trouble controlling their thoughts and impulses.</p><p><div style='display:inline-block;background-color:#4169e1;height:27px; width:40px;margin-right: 5px;'></div><b>Cures</b> the deficit. The person becomes <b>able</b> to control their thoughts and impulses.</p></div><div style='width:800px;margin-top:50px;margin: 0 auto;'><div style='float: left;margin-left:225px;'><img style='border: 3px solid #000000; width: 150px; height:95px;' src='/static/images/stimulus_img13.png'></img><p class='small'><strong>Option 1</strong></p></div><div style='float: right;margin-right:225px;'><div style=' width: 150px; height:95px; border: 3px solid #000000; background-color: grey;'><p style='text-align: center; margin-top:23%;font-size:14px;font-weight:bold;'>No treatment</p></div><p class='small'><strong>Option 2</strong></p></div></div></div><div style='position:relative;margin-block-start:0px;margin-block-end:0px;bottom: 160px;'><p style='margin-block-start:0px;margin-block-end:0px;'>Use the 'z' key to select the treatment on the left</p><p style='margin-block-start:0px;margin-block-end:0px;'>Use the 'm' key to select the treatment on the right</p></div>,77.0,,,html-keyboard-response,43,115481,0.0-5.0-2.12,IT4PJexb,Self-control,Self-control,75,,,left,/static/images/stimulus_img13.png,40.0,50.0,10.0,False
44,,,,,,html-keyboard-response,44,115482,0.0-5.0-0.13,IT4PJexb,Self-control,Self-control,75,True,,,,,,,
45,,<div style='position:fixed;top:47%;left:49%;text-align:center;font-size:60px;'>+</div>,,,,html-keyboard-response,45,116483,0.0-5.0-1.13,IT4PJexb,Self-control,Self-control,75,,True,,,,,,
46,755.9400000000023,<div style='position:relative; min-width:800px; margin-bottom:360px;top:28.8px;'><div style='margin:auto 0;top:0px;text-align:left;'><p style='text-align:center;font-size: 36px;'>Domain: <strong>Self-control</strong></p><p style='text-align:center;font-size: 18px;'>Chances the treatment...</p><p><div style='display:inline-block;background-color:#ed713a;height:27px; width:40px;margin-right: 5px;'></div><b>Worsens</b> the deficit. The person becomes <b>unable</b> to control their thoughts and impulses.</p><p><div style='display:inline-block;background-color:#808080;height:27px; width:40px;margin-right: 5px;'></div>Has <b>no effect.</b> The person <b>still</b> has some trouble controlling their thoughts and impulses.</p><p><div style='display:inline-block;background-color:#4169e1;height:27px; width:40px;margin-right: 5px;'></div><b>Cures</b> the deficit. The person becomes <b>able</b> to control their thoughts and impulses.</p></div><div style='width:800px;margin-top:50px; margin:0 auto;'><div style='float: left;margin-left:225px;'><div style='border: 3px solid #000000;width: 150px; height:95px; background-color: grey;'><p style='text-align: center;margin-top:23%;font-size:14px;font-weight:bold;'>No Treatment</p></div><p class='small'><strong>Option 1</strong></p></div><div style='float: right;margin-right:225px;'><img style='border: 3px solid #000000; width: 150px; height:95px;' src='/static/images/stimulus_img14.png'></img><p class='small'><strong>Option 2</strong></p></div></div></div><div style='position:relative;margin-block-start:0px;margin-block-end:0px;bottom: 160px;'><p style='margin-block-start:0px;margin-block-end:0px;'>Use the 'z' key to select the treatment on the left</p><p style='margin-block-start:0px;margin-block-end:0px;'>Use the 'm' key to select the treatment on the right</p></div>,90.0,,,html-keyboard-response,46,117241,0.0-5.0-2.13,IT4PJexb,Self-control,Self-control,75,,,right,/static/images/stimulus_img14.png,70.0,5.0,25.0,False
47,,,,,,html-keyboard-response,47,117242,0.0-5.0-0.14,IT4PJexb,Self-control,Self-control,75,True,,,,,,,
48,,<div style='position:fixed;top:47%;left:49%;text-align:center;font-size:60px;'>+</div>,,,,html-keyboard-response,48,118243,0.0-5.0-1.14,IT4PJexb,Self-control,Self-control,75,,True,,,,,,
49,525.3899999997811,<div style='position:relative; min-width:800px; margin-bottom:360px;top:28.8px;'><div style='margin:auto 0;top:0px;text-align:left;'><p style='text-align:center;font-size: 36px;'>Domain: <strong>Self-control</strong></p><p style='text-align:center;font-size: 18px;'>Chances the treatment...</p><p><div style='display:inline-block;background-color:#ed713a;height:27px; width:40px;margin-right: 5px;'></div><b>Worsens</b> the deficit. The person becomes <b>unable</b> to control their thoughts and impulses.</p><p><div style='display:inline-block;background-color:#808080;height:27px; width:40px;margin-right: 5px;'></div>Has <b>no effect.</b> The person <b>still</b> has some trouble controlling their thoughts and impulses.</p><p><div style='display:inline-block;background-color:#4169e1;height:27px; width:40px;margin-right: 5px;'></div><b>Cures</b> the deficit. The person becomes <b>able</b> to control their thoughts and impulses.</p></div><div style='width:800px;margin-top:50px; margin:0 auto;'><div style='float: left;margin-left:225px;'><div style='border: 3px solid #000000;width: 150px; height:95px; background-color: grey;'><p style='text-align: center;margin-top:23%;font-size:14px;font-weight:bold;'>No Treatment</p></div><p class='small'><strong>Option 1</strong></p></div><div style='float: right;margin-right:225px;'><img style='border: 3px solid #000000; width: 150px; height:95px;' src='/static/images/stimulus_img15.png'></img><p class='small'><strong>Option 2</strong></p></div></div></div><div style='position:relative;margin-block-start:0px;margin-block-end:0px;bottom: 160px;'><p style='margin-block-start:0px;margin-block-end:0px;'>Use the 'z' key to select the treatment on the left</p><p style='margin-block-start:0px;margin-block-end:0px;'>Use the 'm' key to select the treatment on the right</p></div>,77.0,,,html-keyboard-response,49,118771,0.0-5.0-2.14,IT4PJexb,Self-control,Self-control,75,,,right,/static/images/stimulus_img15.png,10.0,35.0,55.0,True
50,,,,,,html-keyboard-response,50,118772,0.0-5.0-0.15,IT4PJexb,Self-control,Self-control,75,True,,,,,,,
51,,<div style='position:fixed;top:47%;left:49%;text-align:center;font-size:60px;'>+</div>,,,,html-keyboard-response,51,119773,0.0-5.0-1.15,IT4PJexb,Self-control,Self-control,75,,True,,,,,,
52,682.4900000001362,<div style='position:relative; min-width:800px; margin-bottom:360px;top:28.8px;'><div style='margin:auto 0;top:0px;text-align:left;'><p style='text-align:center;font-size: 36px;'>Domain: <strong>Self-control</strong></p><p style='text-align:center;font-size: 18px;'>Chances the treatment...</p><p><div style='display:inline-block;background-color:#ed713a;height:27px; width:40px;margin-right: 5px;'></div><b>Worsens</b> the deficit. The person becomes <b>unable</b> to control their thoughts and impulses.</p><p><div style='display:inline-block;background-color:#808080;height:27px; width:40px;margin-right: 5px;'></div>Has <b>no effect.</b> The person <b>still</b> has some trouble controlling their thoughts and impulses.</p><p><div style='display:inline-block;background-color:#4169e1;height:27px; width:40px;margin-right: 5px;'></div><b>Cures</b> the deficit. The person becomes <b>able</b> to control their thoughts and impulses.</p></div><div style='width:800px;margin-top:50px; margin:0 auto;'><div style='float: left;margin-left:225px;'><div style='border: 3px solid #000000;width: 150px; height:95px; background-color: grey;'><p style='text-align: center;margin-top:23%;font-size:14px;font-weight:bold;'>No Treatment</p></div><p class='small'><strong>Option 1</strong></p></div><div style='float: right;margin-right:225px;'><img style='border: 3px solid #000000; width: 150px; height:95px;' src='/static/images/stimulus_img16.png'></img><p class='small'><strong>Option 2</strong></p></div></div></div><div style='position:relative;margin-block-start:0px;margin-block-end:0px;bottom: 160px;'><p style='margin-block-start:0px;margin-block-end:0px;'>Use the 'z' key to select the treatment on the left</p><p style='margin-block-start:0px;margin-block-end:0px;'>Use the 'm' key to select the treatment on the right</p></div>,90.0,,,html-keyboard-response,52,120458,0.0-5.0-2.15,IT4PJexb,Self-control,Self-control,75,,,right,/static/images/stimulus_img16.png,70.0,10.0,20.0,False
53,,,,,,html-keyboard-response,53,120458,0.0-5.0-0.16,IT4PJexb,Self-control,Self-control,75,True,,,,,,,
54,,<div style='position:fixed;top:47%;left:49%;text-align:center;font-size:60px;'>+</div>,,,,html-keyboard-response,54,121459,0.0-5.0-1.16,IT4PJexb,Self-control,Self-control,75,,True,,,,,,
55,963.6699999991979,<div style='position:relative; min-width:800px; margin-bottom:360px;top:28.8px;'><div style='margin:auto 0;top:0px;text-align:left;'><p style='text-align:center;font-size: 36px;'>Domain: <strong>Self-control</strong></p><p style='text-align:center;font-size: 18px;'>Chances the treatment...</p><p><div style='display:inline-block;background-color:#ed713a;height:27px; width:40px;margin-right: 5px;'></div><b>Worsens</b> the deficit. The person becomes <b>unable</b> to control their thoughts and impulses.</p><p><div style='display:inline-block;background-color:#808080;height:27px; width:40px;margin-right: 5px;'></div>Has <b>no effect.</b> The person <b>still</b> has some trouble controlling their thoughts and impulses.</p><p><div style='display:inline-block;background-color:#4169e1;height:27px; width:40px;margin-right: 5px;'></div><b>Cures</b> the deficit. The person becomes <b>able</b> to control their thoughts and impulses.</p></div><div style='width:800px;margin-top:50px;margin: 0 auto;'><div style='float: left;margin-left:225px;'><img style='border: 3px solid #000000; width: 150px; height:95px;' src='/static/images/stimulus_img17.png'></img><p class='small'><strong>Option 1</strong></p></div><div style='float: right;margin-right:225px;'><div style=' width: 150px; height:95px; border: 3px solid #000000; background-color: grey;'><p style='text-align: center; margin-top:23%;font-size:14px;font-weight:bold;'>No treatment</p></div><p class='small'><strong>Option 2</strong></p></div></div></div><div style='position:relative;margin-block-start:0px;margin-block-end:0px;bottom: 160px;'><p style='margin-block-start:0px;margin-block-end:0px;'>Use the 'z' key to select the treatment on the left</p><p style='margin-block-start:0px;margin-block-end:0px;'>Use the 'm' key to select the treatment on the right</p></div>,90.0,,,html-keyboard-response,55,122425,0.0-5.0-2.16,IT4PJexb,Self-control,Self-control,75,,,left,/static/images/stimulus_img17.png,40.0,45.0,15.0,True
56,,,,,,html-keyboard-response,56,122426,0.0-5.0-0.17,IT4PJexb,Self-control,Self-control,75,True,,,,,,,
57,,<div style='position:fixed;top:47%;left:49%;text-align:center;font-size:60px;'>+</div>,,,,html-keyboard-response,57,123426,0.0-5.0-1.17,IT4PJexb,Self-control,Self-control,75,,True,,,,,,
58,692.8299999999581,<div style='position:relative; min-width:800px; margin-bottom:360px;top:28.8px;'><div style='margin:auto 0;top:0px;text-align:left;'><p style='text-align:center;font-size: 36px;'>Domain: <strong>Self-control</strong></p><p style='text-align:center;font-size: 18px;'>Chances the treatment...</p><p><div style='display:inline-block;background-color:#ed713a;height:27px; width:40px;margin-right: 5px;'></div><b>Worsens</b> the deficit. The person becomes <b>unable</b> to control their thoughts and impulses.</p><p><div style='display:inline-block;background-color:#808080;height:27px; width:40px;margin-right: 5px;'></div>Has <b>no effect.</b> The person <b>still</b> has some trouble controlling their thoughts and impulses.</p><p><div style='display:inline-block;background-color:#4169e1;height:27px; width:40px;margin-right: 5px;'></div><b>Cures</b> the deficit. The person becomes <b>able</b> to control their thoughts and impulses.</p></div><div style='width:800px;margin-top:50px;margin: 0 auto;'><div style='float: left;margin-left:225px;'><img style='border: 3px solid #000000; width: 150px; height:95px;' src='/static/images/stimulus_img18.png'></img><p class='small'><strong>Option 1</strong></p></div><div style='float: right;margin-right:225px;'><div style=' width: 150px; height:95px; border: 3px solid #000000; background-color: grey;'><p style='text-align: center; margin-top:23%;font-size:14px;font-weight:bold;'>No treatment</p></div><p class='small'><strong>Option 2</strong></p></div></div></div><div style='position:relative;margin-block-start:0px;margin-block-end:0px;bottom: 160px;'><p style='margin-block-start:0px;margin-block-end:0px;'>Use the 'z' key to select the treatment on the left</p><p style='margin-block-start:0px;margin-block-end:0px;'>Use the 'm' key to select the treatment on the right</p></div>,77.0,,,html-keyboard-response,58,124121,0.0-5.0-2.17,IT4PJexb,Self-control,Self-control,75,,,left,/static/images/stimulus_img18.png,60.0,25.0,15.0,False
59,,,,,,html-keyboard-response,59,124122,0.0-5.0-0.18,IT4PJexb,Self-control,Self-control,75,True,,,,,,,
60,,<div style='position:fixed;top:47%;left:49%;text-align:center;font-size:60px;'>+</div>,,,,html-keyboard-response,60,125123,0.0-5.0-1.18,IT4PJexb,Self-control,Self-control,75,,True,,,,,,
61,955.5700000000943,<div style='position:relative; min-width:800px; margin-bottom:360px;top:28.8px;'><div style='margin:auto 0;top:0px;text-align:left;'><p style='text-align:center;font-size: 36px;'>Domain: <strong>Self-control</strong></p><p style='text-align:center;font-size: 18px;'>Chances the treatment...</p><p><div style='display:inline-block;background-color:#ed713a;height:27px; width:40px;margin-right: 5px;'></div><b>Worsens</b> the deficit. The person becomes <b>unable</b> to control their thoughts and impulses.</p><p><div style='display:inline-block;background-color:#808080;height:27px; width:40px;margin-right: 5px;'></div>Has <b>no effect.</b> The person <b>still</b> has some trouble controlling their thoughts and impulses.</p><p><div style='display:inline-block;background-color:#4169e1;height:27px; width:40px;margin-right: 5px;'></div><b>Cures</b> the deficit. The person becomes <b>able</b> to control their thoughts and impulses.</p></div><div style='width:800px;margin-top:50px;margin: 0 auto;'><div style='float: left;margin-left:225px;'><img style='border: 3px solid #000000; width: 150px; height:95px;' src='/static/images/stimulus_img19.png'></img><p class='small'><strong>Option 1</strong></p></div><div style='float: right;margin-right:225px;'><div style=' width: 150px; height:95px; border: 3px solid #000000; background-color: grey;'><p style='text-align: center; margin-top:23%;font-size:14px;font-weight:bold;'>No treatment</p></div><p class='small'><strong>Option 2</strong></p></div></div></div><div style='position:relative;margin-block-start:0px;margin-block-end:0px;bottom: 160px;'><p style='margin-block-start:0px;margin-block-end:0px;'>Use the 'z' key to select the treatment on the left</p><p style='margin-block-start:0px;margin-block-end:0px;'>Use the 'm' key to select the treatment on the right</p></div>,77.0,,,html-keyboard-response,61,126081,0.0-5.0-2.18,IT4PJexb,Self-control,Self-control,75,,,left,/static/images/stimulus_img19.png,25.0,25.0,50.0,False
62,,,,,,html-keyboard-response,62,126082,0.0-5.0-0.19,IT4PJexb,Self-control,Self-control,75,True,,,,,,,
63,,<div style='position:fixed;top:47%;left:49%;text-align:center;font-size:60px;'>+</div>,,,,html-keyboard-response,63,127082,0.0-5.0-1.19,IT4PJexb,Self-control,Self-control,75,,True,,,,,,
64,660.3549999999814,<div style='position:relative; min-width:800px; margin-bottom:360px;top:28.8px;'><div style='margin:auto 0;top:0px;text-align:left;'><p style='text-align:center;font-size: 36px;'>Domain: <strong>Self-control</strong></p><p style='text-align:center;font-size: 18px;'>Chances the treatment...</p><p><div style='display:inline-block;background-color:#ed713a;height:27px; width:40px;margin-right: 5px;'></div><b>Worsens</b> the deficit. The person becomes <b>unable</b> to control their thoughts and impulses.</p><p><div style='display:inline-block;background-color:#808080;height:27px; width:40px;margin-right: 5px;'></div>Has <b>no effect.</b> The person <b>still</b> has some trouble controlling their thoughts and impulses.</p><p><div style='display:inline-block;background-color:#4169e1;height:27px; width:40px;margin-right: 5px;'></div><b>Cures</b> the deficit. The person becomes <b>able</b> to control their thoughts and impulses.</p></div><div style='width:800px;margin-top:50px; margin:0 auto;'><div style='float: left;margin-left:225px;'><div style='border: 3px solid #000000;width: 150px; height:95px; background-color: grey;'><p style='text-align: center;margin-top:23%;font-size:14px;font-weight:bold;'>No Treatment</p></div><p class='small'><strong>Option 1</strong></p></div><div style='float: right;margin-right:225px;'><img style='border: 3px solid #000000; width: 150px; height:95px;' src='/static/images/stimulus_img20.png'></img><p class='small'><strong>Option 2</strong></p></div></div></div><div style='position:relative;margin-block-start:0px;margin-block-end:0px;bottom: 160px;'><p style='margin-block-start:0px;margin-block-end:0px;'>Use the 'z' key to select the treatment on the left</p><p style='margin-block-start:0px;margin-block-end:0px;'>Use the 'm' key to select the treatment on the right</p></div>,77.0,,,html-keyboard-response,64,127745,0.0-5.0-2.19,IT4PJexb,Self-control,Self-control,75,,,right,/static/images/stimulus_img20.png,15.0,50.0,35.0,True
65,,,,,,html-keyboard-response,65,127746,0.0-5.0-0.20,IT4PJexb,Self-control,Self-control,75,True,,,,,,,
66,,<div style='position:fixed;top:47%;left:49%;text-align:center;font-size:60px;'>+</div>,,,,html-keyboard-response,66,128746,0.0-5.0-1.20,IT4PJexb,Self-control,Self-control,75,,True,,,,,,
67,900.0200000000477,<div style='position:relative; min-width:800px; margin-bottom:360px;top:28.8px;'><div style='margin:auto 0;top:0px;text-align:left;'><p style='text-align:center;font-size: 36px;'>Domain: <strong>Self-control</strong></p><p style='text-align:center;font-size: 18px;'>Chances the treatment...</p><p><div style='display:inline-block;background-color:#ed713a;height:27px; width:40px;margin-right: 5px;'></div><b>Worsens</b> the deficit. The person becomes <b>unable</b> to control their thoughts and impulses.</p><p><div style='display:inline-block;background-color:#808080;height:27px; width:40px;margin-right: 5px;'></div>Has <b>no effect.</b> The person <b>still</b> has some trouble controlling their thoughts and impulses.</p><p><div style='display:inline-block;background-color:#4169e1;height:27px; width:40px;margin-right: 5px;'></div><b>Cures</b> the deficit. The person becomes <b>able</b> to control their thoughts and impulses.</p></div><div style='width:800px;margin-top:50px; margin:0 auto;'><div style='float: left;margin-left:225px;'><div style='border: 3px solid #000000;width: 150px; height:95px; background-color: grey;'><p style='text-align: center;margin-top:23%;font-size:14px;font-weight:bold;'>No Treatment</p></div><p class='small'><strong>Option 1</strong></p></div><div style='float: right;margin-right:225px;'><img style='border: 3px solid #000000; width: 150px; height:95px;' src='/static/images/stimulus_img21.png'></img><p class='small'><strong>Option 2</strong></p></div></div></div><div style='position:relative;margin-block-start:0px;margin-block-end:0px;bottom: 160px;'><p style='margin-block-start:0px;margin-block-end:0px;'>Use the 'z' key to select the treatment on the left</p><p style='margin-block-start:0px;margin-block-end:0px;'>Use the 'm' key to select the treatment on the right</p></div>,90.0,,,html-keyboard-response,67,129649,0.0-5.0-2.20,IT4PJexb,Self-control,Self-control,75,,,right,/static/images/stimulus_img21.png,35.0,15.0,50.0,False
68,,,,,,html-keyboard-response,68,129650,0.0-5.0-0.21,IT4PJexb,Self-control,Self-control,75,True,,,,,,,
69,,<div style='position:fixed;top:47%;left:49%;text-align:center;font-size:60px;'>+</div>,,,,html-keyboard-response,69,130651,0.0-5.0-1.21,IT4PJexb,Self-control,Self-control,75,,True,,,,,,
70,595.5149999999849,<div style='position:relative; min-width:800px; margin-bottom:360px;top:28.8px;'><div style='margin:auto 0;top:0px;text-align:left;'><p style='text-align:center;font-size: 36px;'>Domain: <strong>Self-control</strong></p><p style='text-align:center;font-size: 18px;'>Chances the treatment...</p><p><div style='display:inline-block;background-color:#ed713a;height:27px; width:40px;margin-right: 5px;'></div><b>Worsens</b> the deficit. The person becomes <b>unable</b> to control their thoughts and impulses.</p><p><div style='display:inline-block;background-color:#808080;height:27px; width:40px;margin-right: 5px;'></div>Has <b>no effect.</b> The person <b>still</b> has some trouble controlling their thoughts and impulses.</p><p><div style='display:inline-block;background-color:#4169e1;height:27px; width:40px;margin-right: 5px;'></div><b>Cures</b> the deficit. The person becomes <b>able</b> to control their thoughts and impulses.</p></div><div style='width:800px;margin-top:50px; margin:0 auto;'><div style='float: left;margin-left:225px;'><div style='border: 3px solid #000000;width: 150px; height:95px; background-color: grey;'><p style='text-align: center;margin-top:23%;font-size:14px;font-weight:bold;'>No Treatment</p></div><p class='small'><strong>Option 1</strong></p></div><div style='float: right;margin-right:225px;'><img style='border: 3px solid #000000; width: 150px; height:95px;' src='/static/images/stimulus_img22.png'></img><p class='small'><strong>Option 2</strong></p></div></div></div><div style='position:relative;margin-block-start:0px;margin-block-end:0px;bottom: 160px;'><p style='margin-block-start:0px;margin-block-end:0px;'>Use the 'z' key to select the treatment on the left</p><p style='margin-block-start:0px;margin-block-end:0px;'>Use the 'm' key to select the treatment on the right</p></div>,77.0,,,html-keyboard-response,70,131249,0.0-5.0-2.21,IT4PJexb,Self-control,Self-control,75,,,right,/static/images/stimulus_img22.png,45.0,20.0,35.0,True
71,,,,,,html-keyboard-response,71,131250,0.0-5.0-0.22,IT4PJexb,Self-control,Self-control,75,True,,,,,,,
72,,<div style='position:fixed;top:47%;left:49%;text-align:center;font-size:60px;'>+</div>,,,,html-keyboard-response,72,132251,0.0-5.0-1.22,IT4PJexb,Self-control,Self-control,75,,True,,,,,,
73,620.0849999995553,<div style='position:relative; min-width:800px; margin-bottom:360px;top:28.8px;'><div style='margin:auto 0;top:0px;text-align:left;'><p style='text-align:center;font-size: 36px;'>Domain: <strong>Self-control</strong></p><p style='text-align:center;font-size: 18px;'>Chances the treatment...</p><p><div style='display:inline-block;background-color:#ed713a;height:27px; width:40px;margin-right: 5px;'></div><b>Worsens</b> the deficit. The person becomes <b>unable</b> to control their thoughts and impulses.</p><p><div style='display:inline-block;background-color:#808080;height:27px; width:40px;margin-right: 5px;'></div>Has <b>no effect.</b> The person <b>still</b> has some trouble controlling their thoughts and impulses.</p><p><div style='display:inline-block;background-color:#4169e1;height:27px; width:40px;margin-right: 5px;'></div><b>Cures</b> the deficit. The person becomes <b>able</b> to control their thoughts and impulses.</p></div><div style='width:800px;margin-top:50px;margin: 0 auto;'><div style='float: left;margin-left:225px;'><img style='border: 3px solid #000000; width: 150px; height:95px;' src='/static/images/stimulus_img23.png'></img><p class='small'><strong>Option 1</strong></p></div><div style='float: right;margin-right:225px;'><div style=' width: 150px; height:95px; border: 3px solid #000000; background-color: grey;'><p style='text-align: center; margin-top:23%;font-size:14px;font-weight:bold;'>No treatment</p></div><p class='small'><strong>Option 2</strong></p></div></div></div><div style='position:relative;margin-block-start:0px;margin-block-end:0px;bottom: 160px;'><p style='margin-block-start:0px;margin-block-end:0px;'>Use the 'z' key to select the treatment on the left</p><p style='margin-block-start:0px;margin-block-end:0px;'>Use the 'm' key to select the treatment on the right</p></div>,90.0,,,html-keyboard-response,73,132873,0.0-5.0-2.22,IT4PJexb,Self-control,Self-control,75,,,left,/static/images/stimulus_img23.png,15.0,15.0,70.0,True
74,,,,,,html-keyboard-response,74,132874,0.0-5.0-0.23,IT4PJexb,Self-control,Self-control,75,True,,,,,,,
75,,<div style='position:fixed;top:47%;left:49%;text-align:center;font-size:60px;'>+</div>,,,,html-keyboard-response,75,133875,0.0-5.0-1.23,IT4PJexb,Self-control,Self-control,75,,True,,,,,,
76,587.9299999996729,<div style='position:relative; min-width:800px; margin-bottom:360px;top:28.8px;'><div style='margin:auto 0;top:0px;text-align:left;'><p style='text-align:center;font-size: 36px;'>Domain: <strong>Self-control</strong></p><p style='text-align:center;font-size: 18px;'>Chances the treatment...</p><p><div style='display:inline-block;background-color:#ed713a;height:27px; width:40px;margin-right: 5px;'></div><b>Worsens</b> the deficit. The person becomes <b>unable</b> to control their thoughts and impulses.</p><p><div style='display:inline-block;background-color:#808080;height:27px; width:40px;margin-right: 5px;'></div>Has <b>no effect.</b> The person <b>still</b> has some trouble controlling their thoughts and impulses.</p><p><div style='display:inline-block;background-color:#4169e1;height:27px; width:40px;margin-right: 5px;'></div><b>Cures</b> the deficit. The person becomes <b>able</b> to control their thoughts and impulses.</p></div><div style='width:800px;margin-top:50px; margin:0 auto;'><div style='float: left;margin-left:225px;'><div style='border: 3px solid #000000;width: 150px; height:95px; background-color: grey;'><p style='text-align: center;margin-top:23%;font-size:14px;font-weight:bold;'>No Treatment</p></div><p class='small'><strong>Option 1</strong></p></div><div style='float: right;margin-right:225px;'><img style='border: 3px solid #000000; width: 150px; height:95px;' src='/static/images/stimulus_img24.png'></img><p class='small'><strong>Option 2</strong></p></div></div></div><div style='position:relative;margin-block-start:0px;margin-block-end:0px;bottom: 160px;'><p style='margin-block-start:0px;margin-block-end:0px;'>Use the 'z' key to select the treatment on the left</p><p style='margin-block-start:0px;margin-block-end:0px;'>Use the 'm' key to select the treatment on the right</p></div>,77.0,,,html-keyboard-response,76,134465,0.0-5.0-2.23,IT4PJexb,Self-control,Self-control,75,,,right,/static/images/stimulus_img24.png,60.0,35.0,5.0,True
77,,,,,,html-keyboard-response,77,134466,0.0-5.0-0.24,IT4PJexb,Self-control,Self-control,75,True,,,,,,,
78,,<div style='position:fixed;top:47%;left:49%;text-align:center;font-size:60px;'>+</div>,,,,html-keyboard-response,78,135467,0.0-5.0-1.24,IT4PJexb,Self-control,Self-control,75,,True,,,,,,
79,932.0550000002258,<div style='position:relative; min-width:800px; margin-bottom:360px;top:28.8px;'><div style='margin:auto 0;top:0px;text-align:left;'><p style='text-align:center;font-size: 36px;'>Domain: <strong>Self-control</strong></p><p style='text-align:center;font-size: 18px;'>Chances the treatment...</p><p><div style='display:inline-block;background-color:#ed713a;height:27px; width:40px;margin-right: 5px;'></div><b>Worsens</b> the deficit. The person becomes <b>unable</b> to control their thoughts and impulses.</p><p><div style='display:inline-block;background-color:#808080;height:27px; width:40px;margin-right: 5px;'></div>Has <b>no effect.</b> The person <b>still</b> has some trouble controlling their thoughts and impulses.</p><p><div style='display:inline-block;background-color:#4169e1;height:27px; width:40px;margin-right: 5px;'></div><b>Cures</b> the deficit. The person becomes <b>able</b> to control their thoughts and impulses.</p></div><div style='width:800px;margin-top:50px; margin:0 auto;'><div style='float: left;margin-left:225px;'><div style='border: 3px solid #000000;width: 150px; height:95px; background-color: grey;'><p style='text-align: center;margin-top:23%;font-size:14px;font-weight:bold;'>No Treatment</p></div><p class='small'><strong>Option 1</strong></p></div><div style='float: right;margin-right:225px;'><img style='border: 3px solid #000000; width: 150px; height:95px;' src='/static/images/stimulus_img25.png'></img><p class='small'><strong>Option 2</strong></p></div></div></div><div style='position:relative;margin-block-start:0px;margin-block-end:0px;bottom: 160px;'><p style='margin-block-start:0px;margin-block-end:0px;'>Use the 'z' key to select the treatment on the left</p><p style='margin-block-start:0px;margin-block-end:0px;'>Use the 'm' key to select the treatment on the right</p></div>,77.0,,,html-keyboard-response,79,136401,0.0-5.0-2.24,IT4PJexb,Self-control,Self-control,75,,,right,/static/images/stimulus_img25.png,10.0,60.0,30.0,True
80,,,,,,html-keyboard-response,80,136402,0.0-5.0-0.25,IT4PJexb,Self-control,Self-control,75,True,,,,,,,
81,,<div style='position:fixed;top:47%;left:49%;text-align:center;font-size:60px;'>+</div>,,,,html-keyboard-response,81,137404,0.0-5.0-1.25,IT4PJexb,Self-control,Self-control,75,,True,,,,,,
82,730.8800000000629,<div style='position:relative; min-width:800px; margin-bottom:360px;top:28.8px;'><div style='margin:auto 0;top:0px;text-align:left;'><p style='text-align:center;font-size: 36px;'>Domain: <strong>Self-control</strong></p><p style='text-align:center;font-size: 18px;'>Chances the treatment...</p><p><div style='display:inline-block;background-color:#ed713a;height:27px; width:40px;margin-right: 5px;'></div><b>Worsens</b> the deficit. The person becomes <b>unable</b> to control their thoughts and impulses.</p><p><div style='display:inline-block;background-color:#808080;height:27px; width:40px;margin-right: 5px;'></div>Has <b>no effect.</b> The person <b>still</b> has some trouble controlling their thoughts and impulses.</p><p><div style='display:inline-block;background-color:#4169e1;height:27px; width:40px;margin-right: 5px;'></div><b>Cures</b> the deficit. The person becomes <b>able</b> to control their thoughts and impulses.</p></div><div style='width:800px;margin-top:50px; margin:0 auto;'><div style='float: left;margin-left:225px;'><div style='border: 3px solid #000000;width: 150px; height:95px; background-color: grey;'><p style='text-align: center;margin-top:23%;font-size:14px;font-weight:bold;'>No Treatment</p></div><p class='small'><strong>Option 1</strong></p></div><div style='float: right;margin-right:225px;'><img style='border: 3px solid #000000; width: 150px; height:95px;' src='/static/images/stimulus_img26.png'></img><p class='small'><strong>Option 2</strong></p></div></div></div><div style='position:relative;margin-block-start:0px;margin-block-end:0px;bottom: 160px;'><p style='margin-block-start:0px;margin-block-end:0px;'>Use the 'z' key to select the treatment on the left</p><p style='margin-block-start:0px;margin-block-end:0px;'>Use the 'm' key to select the treatment on the right</p></div>,90.0,,,html-keyboard-response,82,138137,0.0-5.0-2.25,IT4PJexb,Self-control,Self-control,75,,,right,/static/images/stimulus_img26.png,35.0,15.0,50.0,False
83,,,,,,html-keyboard-response,83,138137,0.0-5.0-0.26,IT4PJexb,Self-control,Self-control,75,True,,,,,,,
84,,<div style='position:fixed;top:47%;left:49%;text-align:center;font-size:60px;'>+</div>,,,,html-keyboard-response,84,139138,0.0-5.0-1.26,IT4PJexb,Self-control,Self-control,75,,True,,,,,,
85,644.7699999998731,<div style='position:relative; min-width:800px; margin-bottom:360px;top:28.8px;'><div style='margin:auto 0;top:0px;text-align:left;'><p style='text-align:center;font-size: 36px;'>Domain: <strong>Self-control</strong></p><p style='text-align:center;font-size: 18px;'>Chances the treatment...</p><p><div style='display:inline-block;background-color:#ed713a;height:27px; width:40px;margin-right: 5px;'></div><b>Worsens</b> the deficit. The person becomes <b>unable</b> to control their thoughts and impulses.</p><p><div style='display:inline-block;background-color:#808080;height:27px; width:40px;margin-right: 5px;'></div>Has <b>no effect.</b> The person <b>still</b> has some trouble controlling their thoughts and impulses.</p><p><div style='display:inline-block;background-color:#4169e1;height:27px; width:40px;margin-right: 5px;'></div><b>Cures</b> the deficit. The person becomes <b>able</b> to control their thoughts and impulses.</p></div><div style='width:800px;margin-top:50px; margin:0 auto;'><div style='float: left;margin-left:225px;'><div style='border: 3px solid #000000;width: 150px; height:95px; background-color: grey;'><p style='text-align: center;margin-top:23%;font-size:14px;font-weight:bold;'>No Treatment</p></div><p class='small'><strong>Option 1</strong></p></div><div style='float: right;margin-right:225px;'><img style='border: 3px solid #000000; width: 150px; height:95px;' src='/static/images/stimulus_img27.png'></img><p class='small'><strong>Option 2</strong></p></div></div></div><div style='position:relative;margin-block-start:0px;margin-block-end:0px;bottom: 160px;'><p style='margin-block-start:0px;margin-block-end:0px;'>Use the 'z' key to select the treatment on the left</p><p style='margin-block-start:0px;margin-block-end:0px;'>Use the 'm' key to select the treatment on the right</p></div>,90.0,,,html-keyboard-response,85,139785,0.0-5.0-2.26,IT4PJexb,Self-control,Self-control,75,,,right,/static/images/stimulus_img27.png,5.0,65.0,30.0,False
86,,,,,,html-keyboard-response,86,139785,0.0-5.0-0.27,IT4PJexb,Self-control,Self-control,75,True,,,,,,,
87,,<div style='position:fixed;top:47%;left:49%;text-align:center;font-size:60px;'>+</div>,,,,html-keyboard-response,87,140786,0.0-5.0-1.27,IT4PJexb,Self-control,Self-control,75,,True,,,,,,
88,420.6749999993772,<div style='position:relative; min-width:800px; margin-bottom:360px;top:28.8px;'><div style='margin:auto 0;top:0px;text-align:left;'><p style='text-align:center;font-size: 36px;'>Domain: <strong>Self-control</strong></p><p style='text-align:center;font-size: 18px;'>Chances the treatment...</p><p><div style='display:inline-block;background-color:#ed713a;height:27px; width:40px;margin-right: 5px;'></div><b>Worsens</b> the deficit. The person becomes <b>unable</b> to control their thoughts and impulses.</p><p><div style='display:inline-block;background-color:#808080;height:27px; width:40px;margin-right: 5px;'></div>Has <b>no effect.</b> The person <b>still</b> has some trouble controlling their thoughts and impulses.</p><p><div style='display:inline-block;background-color:#4169e1;height:27px; width:40px;margin-right: 5px;'></div><b>Cures</b> the deficit. The person becomes <b>able</b> to control their thoughts and impulses.</p></div><div style='width:800px;margin-top:50px; margin:0 auto;'><div style='float: left;margin-left:225px;'><div style='border: 3px solid #000000;width: 150px; height:95px; background-color: grey;'><p style='text-align: center;margin-top:23%;font-size:14px;font-weight:bold;'>No Treatment</p></div><p class='small'><strong>Option 1</strong></p></div><div style='float: right;margin-right:225px;'><img style='border: 3px solid #000000; width: 150px; height:95px;' src='/static/images/stimulus_img28.png'></img><p class='small'><strong>Option 2</strong></p></div></div></div><div style='position:relative;margin-block-start:0px;margin-block-end:0px;bottom: 160px;'><p style='margin-block-start:0px;margin-block-end:0px;'>Use the 'z' key to select the treatment on the left</p><p style='margin-block-start:0px;margin-block-end:0px;'>Use the 'm' key to select the treatment on the right</p></div>,77.0,,,html-keyboard-response,88,141209,0.0-5.0-2.27,IT4PJexb,Self-control,Self-control,75,,,right,/static/images/stimulus_img28.png,45.0,30.0,25.0,True
89,,,,,,html-keyboard-response,89,141210,0.0-5.0-0.28,IT4PJexb,Self-control,Self-control,75,True,,,,,,,
90,,<div style='position:fixed;top:47%;left:49%;text-align:center;font-size:60px;'>+</div>,,,,html-keyboard-response,90,142210,0.0-5.0-1.28,IT4PJexb,Self-control,Self-control,75,,True,,,,,,
91,660.8550000000978,<div style='position:relative; min-width:800px; margin-bottom:360px;top:28.8px;'><div style='margin:auto 0;top:0px;text-align:left;'><p style='text-align:center;font-size: 36px;'>Domain: <strong>Self-control</strong></p><p style='text-align:center;font-size: 18px;'>Chances the treatment...</p><p><div style='display:inline-block;background-color:#ed713a;height:27px; width:40px;margin-right: 5px;'></div><b>Worsens</b> the deficit. The person becomes <b>unable</b> to control their thoughts and impulses.</p><p><div style='display:inline-block;background-color:#808080;height:27px; width:40px;margin-right: 5px;'></div>Has <b>no effect.</b> The person <b>still</b> has some trouble controlling their thoughts and impulses.</p><p><div style='display:inline-block;background-color:#4169e1;height:27px; width:40px;margin-right: 5px;'></div><b>Cures</b> the deficit. The person becomes <b>able</b> to control their thoughts and impulses.</p></div><div style='width:800px;margin-top:50px; margin:0 auto;'><div style='float: left;margin-left:225px;'><div style='border: 3px solid #000000;width: 150px; height:95px; background-color: grey;'><p style='text-align: center;margin-top:23%;font-size:14px;font-weight:bold;'>No Treatment</p></div><p class='small'><strong>Option 1</strong></p></div><div style='float: right;margin-right:225px;'><img style='border: 3px solid #000000; width: 150px; height:95px;' src='/static/images/stimulus_img29.png'></img><p class='small'><strong>Option 2</strong></p></div></div></div><div style='position:relative;margin-block-start:0px;margin-block-end:0px;bottom: 160px;'><p style='margin-block-start:0px;margin-block-end:0px;'>Use the 'z' key to select the treatment on the left</p><p style='margin-block-start:0px;margin-block-end:0px;'>Use the 'm' key to select the treatment on the right</p></div>,77.0,,,html-keyboard-response,91,142873,0.0-5.0-2.28,IT4PJexb,Self-control,Self-control,75,,,right,/static/images/stimulus_img29.png,30.0,65.0,5.0,True
92,,,,,,html-keyboard-response,92,142874,0.0-5.0-0.29,IT4PJexb,Self-control,Self-control,75,True,,,,,,,
93,,<div style='position:fixed;top:47%;left:49%;text-align:center;font-size:60px;'>+</div>,,,,html-keyboard-response,93,143874,0.0-5.0-1.29,IT4PJexb,Self-control,Self-control,75,,True,,,,,,
94,460.42499999928987,<div style='position:relative; min-width:800px; margin-bottom:360px;top:28.8px;'><div style='margin:auto 0;top:0px;text-align:left;'><p style='text-align:center;font-size: 36px;'>Domain: <strong>Self-control</strong></p><p style='text-align:center;font-size: 18px;'>Chances the treatment...</p><p><div style='display:inline-block;background-color:#ed713a;height:27px; width:40px;margin-right: 5px;'></div><b>Worsens</b> the deficit. The person becomes <b>unable</b> to control their thoughts and impulses.</p><p><div style='display:inline-block;background-color:#808080;height:27px; width:40px;margin-right: 5px;'></div>Has <b>no effect.</b> The person <b>still</b> has some trouble controlling their thoughts and impulses.</p><p><div style='display:inline-block;background-color:#4169e1;height:27px; width:40px;margin-right: 5px;'></div><b>Cures</b> the deficit. The person becomes <b>able</b> to control their thoughts and impulses.</p></div><div style='width:800px;margin-top:50px; margin:0 auto;'><div style='float: left;margin-left:225px;'><div style='border: 3px solid #000000;width: 150px; height:95px; background-color: grey;'><p style='text-align: center;margin-top:23%;font-size:14px;font-weight:bold;'>No Treatment</p></div><p class='small'><strong>Option 1</strong></p></div><div style='float: right;margin-right:225px;'><img style='border: 3px solid #000000; width: 150px; height:95px;' src='/static/images/stimulus_img30.png'></img><p class='small'><strong>Option 2</strong></p></div></div></div><div style='position:relative;margin-block-start:0px;margin-block-end:0px;bottom: 160px;'><p style='margin-block-start:0px;margin-block-end:0px;'>Use the 'z' key to select the treatment on the left</p><p style='margin-block-start:0px;margin-block-end:0px;'>Use the 'm' key to select the treatment on the right</p></div>,77.0,,,html-keyboard-response,94,144337,0.0-5.0-2.29,IT4PJexb,Self-control,Self-control,75,,,right,/static/images/stimulus_img30.png,25.0,50.0,25.0,True
95,,,,,,html-keyboard-response,95,144337,0.0-5.0-0.30,IT4PJexb,Self-control,Self-control,75,True,,,,,,,
96,,<div style='position:fixed;top:47%;left:49%;text-align:center;font-size:60px;'>+</div>,,,,html-keyboard-response,96,145339,0.0-5.0-1.30,IT4PJexb,Self-control,Self-control,75,,True,,,,,,
97,402.43499999993946,<div style='position:relative; min-width:800px; margin-bottom:360px;top:28.8px;'><div style='margin:auto 0;top:0px;text-align:left;'><p style='text-align:center;font-size: 36px;'>Domain: <strong>Self-control</strong></p><p style='text-align:center;font-size: 18px;'>Chances the treatment...</p><p><div style='display:inline-block;background-color:#ed713a;height:27px; width:40px;margin-right: 5px;'></div><b>Worsens</b> the deficit. The person becomes <b>unable</b> to control their thoughts and impulses.</p><p><div style='display:inline-block;background-color:#808080;height:27px; width:40px;margin-right: 5px;'></div>Has <b>no effect.</b> The person <b>still</b> has some trouble controlling their thoughts and impulses.</p><p><div style='display:inline-block;background-color:#4169e1;height:27px; width:40px;margin-right: 5px;'></div><b>Cures</b> the deficit. The person becomes <b>able</b> to control their thoughts and impulses.</p></div><div style='width:800px;margin-top:50px; margin:0 auto;'><div style='float: left;margin-left:225px;'><div style='border: 3px solid #000000;width: 150px; height:95px; background-color: grey;'><p style='text-align: center;margin-top:23%;font-size:14px;font-weight:bold;'>No Treatment</p></div><p class='small'><strong>Option 1</strong></p></div><div style='float: right;margin-right:225px;'><img style='border: 3px solid #000000; width: 150px; height:95px;' src='/static/images/stimulus_img31.png'></img><p class='small'><strong>Option 2</strong></p></div></div></div><div style='position:relative;margin-block-start:0px;margin-block-end:0px;bottom: 160px;'><p style='margin-block-start:0px;margin-block-end:0px;'>Use the 'z' key to select the treatment on the left</p><p style='margin-block-start:0px;margin-block-end:0px;'>Use the 'm' key to select the treatment on the right</p></div>,77.0,,,html-keyboard-response,97,145745,0.0-5.0-2.30,IT4PJexb,Self-control,Self-control,75,,,right,/static/images/stimulus_img31.png,5.0,20.0,75.0,True
98,,,,,,html-keyboard-response,98,145745,0.0-5.0-0.31,IT4PJexb,Self-control,Self-control,75,True,,,,,,,
99,,<div style='position:fixed;top:47%;left:49%;text-align:center;font-size:60px;'>+</div>,,,,html-keyboard-response,99,146746,0.0-5.0-1.31,IT4PJexb,Self-control,Self-control,75,,True,,,,,,
100,676.2950000001874,<div style='position:relative; min-width:800px; margin-bottom:360px;top:28.8px;'><div style='margin:auto 0;top:0px;text-align:left;'><p style='text-align:center;font-size: 36px;'>Domain: <strong>Self-control</strong></p><p style='text-align:center;font-size: 18px;'>Chances the treatment...</p><p><div style='display:inline-block;background-color:#ed713a;height:27px; width:40px;margin-right: 5px;'></div><b>Worsens</b> the deficit. The person becomes <b>unable</b> to control their thoughts and impulses.</p><p><div style='display:inline-block;background-color:#808080;height:27px; width:40px;margin-right: 5px;'></div>Has <b>no effect.</b> The person <b>still</b> has some trouble controlling their thoughts and impulses.</p><p><div style='display:inline-block;background-color:#4169e1;height:27px; width:40px;margin-right: 5px;'></div><b>Cures</b> the deficit. The person becomes <b>able</b> to control their thoughts and impulses.</p></div><div style='width:800px;margin-top:50px; margin:0 auto;'><div style='float: left;margin-left:225px;'><div style='border: 3px solid #000000;width: 150px; height:95px; background-color: grey;'><p style='text-align: center;margin-top:23%;font-size:14px;font-weight:bold;'>No Treatment</p></div><p class='small'><strong>Option 1</strong></p></div><div style='float: right;margin-right:225px;'><img style='border: 3px solid #000000; width: 150px; height:95px;' src='/static/images/stimulus_img32.png'></img><p class='small'><strong>Option 2</strong></p></div></div></div><div style='position:relative;margin-block-start:0px;margin-block-end:0px;bottom: 160px;'><p style='margin-block-start:0px;margin-block-end:0px;'>Use the 'z' key to select the treatment on the left</p><p style='margin-block-start:0px;margin-block-end:0px;'>Use the 'm' key to select the treatment on the right</p></div>,90.0,,,html-keyboard-response,100,147425,0.0-5.0-2.31,IT4PJexb,Self-control,Self-control,75,,,right,/static/images/stimulus_img32.png,55.0,10.0,35.0,False
101,,,,,,html-keyboard-response,101,147425,0.0-5.0-0.32,IT4PJexb,Self-control,Self-control,75,True,,,,,,,
102,,<div style='position:fixed;top:47%;left:49%;text-align:center;font-size:60px;'>+</div>,,,,html-keyboard-response,102,148426,0.0-5.0-1.32,IT4PJexb,Self-control,Self-control,75,,True,,,,,,
103,722.934999999794,<div style='position:relative; min-width:800px; margin-bottom:360px;top:28.8px;'><div style='margin:auto 0;top:0px;text-align:left;'><p style='text-align:center;font-size: 36px;'>Domain: <strong>Self-control</strong></p><p style='text-align:center;font-size: 18px;'>Chances the treatment...</p><p><div style='display:inline-block;background-color:#ed713a;height:27px; width:40px;margin-right: 5px;'></div><b>Worsens</b> the deficit. The person becomes <b>unable</b> to control their thoughts and impulses.</p><p><div style='display:inline-block;background-color:#808080;height:27px; width:40px;margin-right: 5px;'></div>Has <b>no effect.</b> The person <b>still</b> has some trouble controlling their thoughts and impulses.</p><p><div style='display:inline-block;background-color:#4169e1;height:27px; width:40px;margin-right: 5px;'></div><b>Cures</b> the deficit. The person becomes <b>able</b> to control their thoughts and impulses.</p></div><div style='width:800px;margin-top:50px; margin:0 auto;'><div style='float: left;margin-left:225px;'><div style='border: 3px solid #000000;width: 150px; height:95px; background-color: grey;'><p style='text-align: center;margin-top:23%;font-size:14px;font-weight:bold;'>No Treatment</p></div><p class='small'><strong>Option 1</strong></p></div><div style='float: right;margin-right:225px;'><img style='border: 3px solid #000000; width: 150px; height:95px;' src='/static/images/stimulus_img33.png'></img><p class='small'><strong>Option 2</strong></p></div></div></div><div style='position:relative;margin-block-start:0px;margin-block-end:0px;bottom: 160px;'><p style='margin-block-start:0px;margin-block-end:0px;'>Use the 'z' key to select the treatment on the left</p><p style='margin-block-start:0px;margin-block-end:0px;'>Use the 'm' key to select the treatment on the right</p></div>,90.0,,,html-keyboard-response,103,149153,0.0-5.0-2.32,IT4PJexb,Self-control,Self-control,75,,,right,/static/images/stimulus_img33.png,55.0,40.0,5.0,False
104,,,,,,html-keyboard-response,104,149153,0.0-5.0-0.33,IT4PJexb,Self-control,Self-control,75,True,,,,,,,
105,,<div style='position:fixed;top:47%;left:49%;text-align:center;font-size:60px;'>+</div>,,,,html-keyboard-response,105,150154,0.0-5.0-1.33,IT4PJexb,Self-control,Self-control,75,,True,,,,,,
106,923.4150000002119,<div style='position:relative; min-width:800px; margin-bottom:360px;top:28.8px;'><div style='margin:auto 0;top:0px;text-align:left;'><p style='text-align:center;font-size: 36px;'>Domain: <strong>Self-control</strong></p><p style='text-align:center;font-size: 18px;'>Chances the treatment...</p><p><div style='display:inline-block;background-color:#ed713a;height:27px; width:40px;margin-right: 5px;'></div><b>Worsens</b> the deficit. The person becomes <b>unable</b> to control their thoughts and impulses.</p><p><div style='display:inline-block;background-color:#808080;height:27px; width:40px;margin-right: 5px;'></div>Has <b>no effect.</b> The person <b>still</b> has some trouble controlling their thoughts and impulses.</p><p><div style='display:inline-block;background-color:#4169e1;height:27px; width:40px;margin-right: 5px;'></div><b>Cures</b> the deficit. The person becomes <b>able</b> to control their thoughts and impulses.</p></div><div style='width:800px;margin-top:50px;margin: 0 auto;'><div style='float: left;margin-left:225px;'><img style='border: 3px solid #000000; width: 150px; height:95px;' src='/static/images/stimulus_img34.png'></img><p class='small'><strong>Option 1</strong></p></div><div style='float: right;margin-right:225px;'><div style=' width: 150px; height:95px; border: 3px solid #000000; background-color: grey;'><p style='text-align: center; margin-top:23%;font-size:14px;font-weight:bold;'>No treatment</p></div><p class='small'><strong>Option 2</strong></p></div></div></div><div style='position:relative;margin-block-start:0px;margin-block-end:0px;bottom: 160px;'><p style='margin-block-start:0px;margin-block-end:0px;'>Use the 'z' key to select the treatment on the left</p><p style='margin-block-start:0px;margin-block-end:0px;'>Use the 'm' key to select the treatment on the right</p></div>,90.0,,,html-keyboard-response,106,151081,0.0-5.0-2.33,IT4PJexb,Self-control,Self-control,75,,,left,/static/images/stimulus_img34.png,35.0,50.0,15.0,True
107,,,,,,html-keyboard-response,107,151081,0.0-5.0-0.34,IT4PJexb,Self-control,Self-control,75,True,,,,,,,
108,,<div style='position:fixed;top:47%;left:49%;text-align:center;font-size:60px;'>+</div>,,,,html-keyboard-response,108,152083,0.0-5.0-1.34,IT4PJexb,Self-control,Self-control,75,,True,,,,,,
109,916.5349999993923,<div style='position:relative; min-width:800px; margin-bottom:360px;top:28.8px;'><div style='margin:auto 0;top:0px;text-align:left;'><p style='text-align:center;font-size: 36px;'>Domain: <strong>Self-control</strong></p><p style='text-align:center;font-size: 18px;'>Chances the treatment...</p><p><div style='display:inline-block;background-color:#ed713a;height:27px; width:40px;margin-right: 5px;'></div><b>Worsens</b> the deficit. The person becomes <b>unable</b> to control their thoughts and impulses.</p><p><div style='display:inline-block;background-color:#808080;height:27px; width:40px;margin-right: 5px;'></div>Has <b>no effect.</b> The person <b>still</b> has some trouble controlling their thoughts and impulses.</p><p><div style='display:inline-block;background-color:#4169e1;height:27px; width:40px;margin-right: 5px;'></div><b>Cures</b> the deficit. The person becomes <b>able</b> to control their thoughts and impulses.</p></div><div style='width:800px;margin-top:50px;margin: 0 auto;'><div style='float: left;margin-left:225px;'><img style='border: 3px solid #000000; width: 150px; height:95px;' src='/static/images/stimulus_img35.png'></img><p class='small'><strong>Option 1</strong></p></div><div style='float: right;margin-right:225px;'><div style=' width: 150px; height:95px; border: 3px solid #000000; background-color: grey;'><p style='text-align: center; margin-top:23%;font-size:14px;font-weight:bold;'>No treatment</p></div><p class='small'><strong>Option 2</strong></p></div></div></div><div style='position:relative;margin-block-start:0px;margin-block-end:0px;bottom: 160px;'><p style='margin-block-start:0px;margin-block-end:0px;'>Use the 'z' key to select the treatment on the left</p><p style='margin-block-start:0px;margin-block-end:0px;'>Use the 'm' key to select the treatment on the right</p></div>,90.0,,,html-keyboard-response,109,153002,0.0-5.0-2.34,IT4PJexb,Self-control,Self-control,75,,,left,/static/images/stimulus_img35.png,30.0,10.0,60.0,True
110,,,,,,html-keyboard-response,110,153002,0.0-5.0-0.35,IT4PJexb,Self-control,Self-control,75,True,,,,,,,
111,,<div style='position:fixed;top:47%;left:49%;text-align:center;font-size:60px;'>+</div>,,,,html-keyboard-response,111,154003,0.0-5.0-1.35,IT4PJexb,Self-control,Self-control,75,,True,,,,,,
112,1114.9199999999837,<div style='position:relative; min-width:800px; margin-bottom:360px;top:28.8px;'><div style='margin:auto 0;top:0px;text-align:left;'><p style='text-align:center;font-size: 36px;'>Domain: <strong>Self-control</strong></p><p style='text-align:center;font-size: 18px;'>Chances the treatment...</p><p><div style='display:inline-block;background-color:#ed713a;height:27px; width:40px;margin-right: 5px;'></div><b>Worsens</b> the deficit. The person becomes <b>unable</b> to control their thoughts and impulses.</p><p><div style='display:inline-block;background-color:#808080;height:27px; width:40px;margin-right: 5px;'></div>Has <b>no effect.</b> The person <b>still</b> has some trouble controlling their thoughts and impulses.</p><p><div style='display:inline-block;background-color:#4169e1;height:27px; width:40px;margin-right: 5px;'></div><b>Cures</b> the deficit. The person becomes <b>able</b> to control their thoughts and impulses.</p></div><div style='width:800px;margin-top:50px; margin:0 auto;'><div style='float: left;margin-left:225px;'><div style='border: 3px solid #000000;width: 150px; height:95px; background-color: grey;'><p style='text-align: center;margin-top:23%;font-size:14px;font-weight:bold;'>No Treatment</p></div><p class='small'><strong>Option 1</strong></p></div><div style='float: right;margin-right:225px;'><img style='border: 3px solid #000000; width: 150px; height:95px;' src='/static/images/stimulus_img36.png'></img><p class='small'><strong>Option 2</strong></p></div></div></div><div style='position:relative;margin-block-start:0px;margin-block-end:0px;bottom: 160px;'><p style='margin-block-start:0px;margin-block-end:0px;'>Use the 'z' key to select the treatment on the left</p><p style='margin-block-start:0px;margin-block-end:0px;'>Use the 'm' key to select the treatment on the right</p></div>,77.0,,,html-keyboard-response,112,155121,0.0-5.0-2.35,IT4PJexb,Self-control,Self-control,75,,,right,/static/images/stimulus_img36.png,15.0,70.0,15.0,True
113,,,,,,html-keyboard-response,113,155122,0.0-5.0-0.36,IT4PJexb,Self-control,Self-control,75,True,,,,,,,
114,,<div style='position:fixed;top:47%;left:49%;text-align:center;font-size:60px;'>+</div>,,,,html-keyboard-response,114,156123,0.0-5.0-1.36,IT4PJexb,Self-control,Self-control,75,,True,,,,,,
115,597.3650000005146,<div style='position:relative; min-width:800px; margin-bottom:360px;top:28.8px;'><div style='margin:auto 0;top:0px;text-align:left;'><p style='text-align:center;font-size: 36px;'>Domain: <strong>Self-control</strong></p><p style='text-align:center;font-size: 18px;'>Chances the treatment...</p><p><div style='display:inline-block;background-color:#ed713a;height:27px; width:40px;margin-right: 5px;'></div><b>Worsens</b> the deficit. The person becomes <b>unable</b> to control their thoughts and impulses.</p><p><div style='display:inline-block;background-color:#808080;height:27px; width:40px;margin-right: 5px;'></div>Has <b>no effect.</b> The person <b>still</b> has some trouble controlling their thoughts and impulses.</p><p><div style='display:inline-block;background-color:#4169e1;height:27px; width:40px;margin-right: 5px;'></div><b>Cures</b> the deficit. The person becomes <b>able</b> to control their thoughts and impulses.</p></div><div style='width:800px;margin-top:50px; margin:0 auto;'><div style='float: left;margin-left:225px;'><div style='border: 3px solid #000000;width: 150px; height:95px; background-color: grey;'><p style='text-align: center;margin-top:23%;font-size:14px;font-weight:bold;'>No Treatment</p></div><p class='small'><strong>Option 1</strong></p></div><div style='float: right;margin-right:225px;'><img style='border: 3px solid #000000; width: 150px; height:95px;' src='/static/images/stimulus_img37.png'></img><p class='small'><strong>Option 2</strong></p></div></div></div><div style='position:relative;margin-block-start:0px;margin-block-end:0px;bottom: 160px;'><p style='margin-block-start:0px;margin-block-end:0px;'>Use the 'z' key to select the treatment on the left</p><p style='margin-block-start:0px;margin-block-end:0px;'>Use the 'm' key to select the treatment on the right</p></div>,77.0,,,html-keyboard-response,115,156723,0.0-5.0-2.36,IT4PJexb,Self-control,Self-control,75,,,right,/static/images/stimulus_img37.png,20.0,60.0,20.0,True
116,,,,,,html-keyboard-response,116,156724,0.0-5.0-0.37,IT4PJexb,Self-control,Self-control,75,True,,,,,,,
117,,<div style='position:fixed;top:47%;left:49%;text-align:center;font-size:60px;'>+</div>,,,,html-keyboard-response,117,157725,0.0-5.0-1.37,IT4PJexb,Self-control,Self-control,75,,True,,,,,,
118,681.1349999998347,<div style='position:relative; min-width:800px; margin-bottom:360px;top:28.8px;'><div style='margin:auto 0;top:0px;text-align:left;'><p style='text-align:center;font-size: 36px;'>Domain: <strong>Self-control</strong></p><p style='text-align:center;font-size: 18px;'>Chances the treatment...</p><p><div style='display:inline-block;background-color:#ed713a;height:27px; width:40px;margin-right: 5px;'></div><b>Worsens</b> the deficit. The person becomes <b>unable</b> to control their thoughts and impulses.</p><p><div style='display:inline-block;background-color:#808080;height:27px; width:40px;margin-right: 5px;'></div>Has <b>no effect.</b> The person <b>still</b> has some trouble controlling their thoughts and impulses.</p><p><div style='display:inline-block;background-color:#4169e1;height:27px; width:40px;margin-right: 5px;'></div><b>Cures</b> the deficit. The person becomes <b>able</b> to control their thoughts and impulses.</p></div><div style='width:800px;margin-top:50px; margin:0 auto;'><div style='float: left;margin-left:225px;'><div style='border: 3px solid #000000;width: 150px; height:95px; background-color: grey;'><p style='text-align: center;margin-top:23%;font-size:14px;font-weight:bold;'>No Treatment</p></div><p class='small'><strong>Option 1</strong></p></div><div style='float: right;margin-right:225px;'><img style='border: 3px solid #000000; width: 150px; height:95px;' src='/static/images/stimulus_img38.png'></img><p class='small'><strong>Option 2</strong></p></div></div></div><div style='position:relative;margin-block-start:0px;margin-block-end:0px;bottom: 160px;'><p style='margin-block-start:0px;margin-block-end:0px;'>Use the 'z' key to select the treatment on the left</p><p style='margin-block-start:0px;margin-block-end:0px;'>Use the 'm' key to select the treatment on the right</p></div>,90.0,,,html-keyboard-response,118,158409,0.0-5.0-2.37,IT4PJexb,Self-control,Self-control,75,,,right,/static/images/stimulus_img38.png,20.0,20.0,60.0,False
119,,,,,,html-keyboard-response,119,158409,0.0-5.0-0.38,IT4PJexb,Self-control,Self-control,75,True,,,,,,,
120,,<div style='position:fixed;top:47%;left:49%;text-align:center;font-size:60px;'>+</div>,,,,html-keyboard-response,120,159410,0.0-5.0-1.38,IT4PJexb,Self-control,Self-control,75,,True,,,,,,
121,1115.329999999638,<div style='position:relative; min-width:800px; margin-bottom:360px;top:28.8px;'><div style='margin:auto 0;top:0px;text-align:left;'><p style='text-align:center;font-size: 36px;'>Domain: <strong>Self-control</strong></p><p style='text-align:center;font-size: 18px;'>Chances the treatment...</p><p><div style='display:inline-block;background-color:#ed713a;height:27px; width:40px;margin-right: 5px;'></div><b>Worsens</b> the deficit. The person becomes <b>unable</b> to control their thoughts and impulses.</p><p><div style='display:inline-block;background-color:#808080;height:27px; width:40px;margin-right: 5px;'></div>Has <b>no effect.</b> The person <b>still</b> has some trouble controlling their thoughts and impulses.</p><p><div style='display:inline-block;background-color:#4169e1;height:27px; width:40px;margin-right: 5px;'></div><b>Cures</b> the deficit. The person becomes <b>able</b> to control their thoughts and impulses.</p></div><div style='width:800px;margin-top:50px;margin: 0 auto;'><div style='float: left;margin-left:225px;'><img style='border: 3px solid #000000; width: 150px; height:95px;' src='/static/images/stimulus_img39.png'></img><p class='small'><strong>Option 1</strong></p></div><div style='float: right;margin-right:225px;'><div style=' width: 150px; height:95px; border: 3px solid #000000; background-color: grey;'><p style='text-align: center; margin-top:23%;font-size:14px;font-weight:bold;'>No treatment</p></div><p class='small'><strong>Option 2</strong></p></div></div></div><div style='position:relative;margin-block-start:0px;margin-block-end:0px;bottom: 160px;'><p style='margin-block-start:0px;margin-block-end:0px;'>Use the 'z' key to select the treatment on the left</p><p style='margin-block-start:0px;margin-block-end:0px;'>Use the 'm' key to select the treatment on the right</p></div>,90.0,,,html-keyboard-response,121,160529,0.0-5.0-2.38,IT4PJexb,Self-control,Self-control,75,,,left,/static/images/stimulus_img39.png,20.0,70.0,10.0,True
