,rt,stimulus,key_press,image indices,image paths,trial_type,trial_index,time_elapsed,internal_node_id,user_id,condition,condition_per_trial,total_trials,fixation_cross_trial,cognitive_domain_trial,treatment_display,stimulus_path,risk,gain,no_effect,experimental_treatment_selected
0,4465.560000000551,"<p class='lead'> Cognitive Functions and Risk Assessment Task Prototype</p><p> Drexel University, Lab for Cogntive Neuroengineering<p>PI: Dr. John Megdalia</p>",32.0,"[1, 2, 3, 4, 5, 6, 7, 8, 9, 10, 11, 12, 13, 14, 15, 16, 17, 18, 19, 20, 21, 22, 23, 24, 25, 26, 27, 28, 29, 30, 31, 32, 33, 34, 35, 36, 37, 38, 39, 40, 41, 42, 43, 44, 45, 46, 47, 48, 49, 50, 51, 52, 53, 54, 55, 56, 57, 58, 59, 60, 61, 62, 63, 64, 65, 66, 67, 68, 69, 70, 71, 72, 73, 74, 75]","['/static/images/stimulus_img1.png', '/static/images/stimulus_img2.png', '/static/images/stimulus_img3.png', '/static/images/stimulus_img4.png', '/static/images/stimulus_img5.png', '/static/images/stimulus_img6.png', '/static/images/stimulus_img7.png', '/static/images/stimulus_img8.png', '/static/images/stimulus_img9.png', '/static/images/stimulus_img10.png', '/static/images/stimulus_img11.png', '/static/images/stimulus_img12.png', '/static/images/stimulus_img13.png', '/static/images/stimulus_img14.png', '/static/images/stimulus_img15.png', '/static/images/stimulus_img16.png', '/static/images/stimulus_img17.png', '/static/images/stimulus_img18.png', '/static/images/stimulus_img19.png', '/static/images/stimulus_img20.png', '/static/images/stimulus_img21.png', '/static/images/stimulus_img22.png', '/static/images/stimulus_img23.png', '/static/images/stimulus_img24.png', '/static/images/stimulus_img25.png', '/static/images/stimulus_img26.png', '/static/images/stimulus_img27.png', '/static/images/stimulus_img28.png', '/static/images/stimulus_img29.png', '/static/images/stimulus_img30.png', '/static/images/stimulus_img31.png', '/static/images/stimulus_img32.png', '/static/images/stimulus_img33.png', '/static/images/stimulus_img34.png', '/static/images/stimulus_img35.png', '/static/images/stimulus_img36.png', '/static/images/stimulus_img37.png', '/static/images/stimulus_img38.png', '/static/images/stimulus_img39.png', '/static/images/stimulus_img40.png', '/static/images/stimulus_img41.png', '/static/images/stimulus_img42.png', '/static/images/stimulus_img43.png', '/static/images/stimulus_img44.png', '/static/images/stimulus_img45.png', '/static/images/stimulus_img46.png', '/static/images/stimulus_img47.png', '/static/images/stimulus_img48.png', '/static/images/stimulus_img49.png', '/static/images/stimulus_img50.png', '/static/images/stimulus_img51.png', '/static/images/stimulus_img52.png', '/static/images/stimulus_img53.png', '/static/images/stimulus_img54.png', '/static/images/stimulus_img55.png', '/static/images/stimulus_img56.png', '/static/images/stimulus_img57.png', '/static/images/stimulus_img58.png', '/static/images/stimulus_img59.png', '/static/images/stimulus_img60.png', '/static/images/stimulus_img61.png', '/static/images/stimulus_img62.png', '/static/images/stimulus_img63.png', '/static/images/stimulus_img64.png', '/static/images/stimulus_img65.png', '/static/images/stimulus_img66.png', '/static/images/stimulus_img67.png', '/static/images/stimulus_img68.png', '/static/images/stimulus_img69.png', '/static/images/stimulus_img70.png', '/static/images/stimulus_img71.png', '/static/images/stimulus_img72.png', '/static/images/stimulus_img73.png', '/static/images/stimulus_img74.png', '/static/images/stimulus_img75.png']",html-keyboard-response,0,4471,0.0-0.0,OCS3O3mK,Self-control,Self-control,75,,,,,,,,
1,12271.435000000565,"<p style='text-align:left;'>We are interested in how you think about the <font color='blue'><b>tradeoffs between risks and benefits</b></font> when treating cognitive deficits.</p><p style='text-align:left;'>We will ask you to consider a few scenarios. You will need to think about whether you would choose to use a technique on a patient or not.</p><p style='text-align:left;'>In the real word, different treatments are associated with different chances of risks and benefits.</p><p style='text-align:left;'>Your task is to indicate whether or not you would recommend one of the treatments based on the chances that it will improve or harm the stated function <i>all else being equal.</i></p><p>Press any key to continue.</p>",32.0,,,html-keyboard-response,1,16743,0.0-1.0,OCS3O3mK,Self-control,Self-control,75,,,,,,,,
2,36309.58500000088,"<p style='text-align:left;'><b>Imagine that you are in the position of a physician</b> deciding whether or not to use an experimental treatment for a Self-control dysfunction. </p><p style='text-align:left;'>You will see several cases like this:</p><div style='width:800px;height:200px;margin:0 auto;'><div style='float: left;margin-left:200px;'><p style='font-size:14px;'>Self-control</p><img src='https://neuroethics-task.s3.amazonaws.com/test.png' style='width:150px;height:95px;border: 3px solid #000000;'></img><p class='small'><strong>Option 1</strong></p></div><div style='float:right;margin-right:200px;'><div style='width: 150px; height: 95px; border: 3px solid #000000; font-size:12px; background-color: grey;margin-top:44px;'><p style='text-align: center; margin-top:25%;'>No treatment</p></div><p class='small'><strong>Option 2</strong></p></div></div></div><p style='text-align:left;'>First, you should look at cognitive function shown above the colored rectangle (""Self-control"" in this case), then at the relative amounts of <b><font color='gray'>gray</font></b>, <b><font color='#4169e1'>blue</font></b>, and <font color='#ed713a'><b>orange</b></font> in the trial. The amount of these colors represent the chances that the treatment:</p><div style='margin:auto 0;text-align:left;'><p style='display:inline-block;min-width:45%;'><div style='display:inline-block;background-color:#ed713a;height:27px; width:40px;margin-right: 5px;'></div><b>Worsens</b> the deficit.</p><p style='display:inline-block;min-width:45%;'><div style='display:inline-block;background-color:#808080;height:27px; width:40px;margin-right: 5px;'></div>Has <b>no effect.</b></p><p style='display:inline-block;min-width:45%;'><div style='display:inline-block;background-color:#4169e1;height:27px; width:40px;margin-right: 5px;'></div><b>Cures</b> the deficit.</p></div><p style='text-align:left;'>You should click the <b>'z'</b> key to pick Option 1, and the <b>'m'</b> key to pick Option 2. Sometimes the treatment will be on the left, and sometimes it will be on the right.</p><p style='text-align:left;'>In any case, your task is always to choose between the two Options- to give the  treatment or not.</p>",32.0,,,html-keyboard-response,2,53055,0.0-2.0,OCS3O3mK,Self-control,Self-control,75,,,,,,,,
3,12408.745000000643,"<p style='text-align:left;'>Here is the function that you will consider throughout the task. Please read the symptoms of dysfunction so that you understand the kind of problem a person would have.</p><table style='width:90%;margin:0 auto;margin-bottom:10px;'><tr style='border-bottom: 1px solid #ddd; text-align:center;background-image:linear-gradient(to right, #7474BF, #348AC7); color:white;'><th style='border-right: 1px solid #ddd;'>Function</th><th style='border-left: 1px solid #ddd;'>Symptoms of Dysfunction</th></tr><tr style='text-align: center; border-bottom: 1px solid #ddd;' bgcolor='#e6f2ff'><td style='border-right:1px solid #ddd;'>Self-control</td><td style='border-left:1px solid #ddd;'>The person has trouble controlling their thoughts and impulses</td></tr></table><p style='text-align:left;'>Remember that the amount of each color represents whether the treatment will worsen the deficit, have no effect, or cure the deficit. In the case of Self-control please make sure you understand what consequences the treatment will have:</p><div style='margin:0 auto;text-align:left;'><p style='display:inline-block;min-width:20%;'><div style='display:inline-block;background-color:#ed713a;height:27px; width:40px;margin-right: 5px;'></div><b>Worsens</b> the deficit. The person becomes <b>unable</b> to control their thoughts and impulses.</p><p style='display:inline-block;min-width:20%;'><div style='display:inline-block;background-color:#808080;height:27px; width:40px;margin-right: 5px;'></div>Has <b>no effect.</b> The person <b>still</b> has some trouble controlling their thoughts and impulses.</p><p style='display:inline-block;min-width:20%;'><div style='display:inline-block;background-color:#4169e1;height:27px; width:40px;margin-right: 5px;'></div><b>Cures</b> the deficit. The person becomes <b>able</b> to control their thoughts and impulses.</p></div><p style=text-align:left;>When you begin the task, you will first see a cross on the center of the screen. Next, you will see a reminder of what the colors represent before each trial for a few seconds. Then, you will see the treatment appear on the screen and you should make your choice. You will then proceed through the trials until the task ends.",32.0,,,html-keyboard-response,3,65467,0.0-3.0,OCS3O3mK,Self-control,Self-control,75,,,,,,,,
4,2751.5550000007206,"<p>After this slide, <strong>the experimental trials will begin. Please do not close the tab or window until you have finished the task.</strong></p>",32.0,,,html-keyboard-response,4,68219,0.0-4.0,OCS3O3mK,Self-control,Self-control,75,,,,,,,,
5,,<div style='position:fixed;top:47%;left:49%;text-align:center;font-size:60px;'>+</div>,,,,html-keyboard-response,5,69221,0.0-5.0-0.0,OCS3O3mK,Self-control,Self-control,75,True,,,,,,,
6,,<div style='position:relative;min-width: 800px;margin:auto 0;text-align: left;margin-bottom:360px;'><p style='font-size:36px; text-align:center;'>Domain: <strong>Self-control</strong></p><p style='text-align:center;font-size:18px;'>Chances the treatment...</p><p><div style='display:inline-block;background-color:#ed713a;height:27px; width:40px;margin-right: 5px;'></div><b>Worsens</b> the deficit. The person becomes <b>unable</b> to control their thoughts and impulses.</p><p><div style='display:inline-block;background-color:#808080;height:27px; width:40px;margin-right: 5px;'></div>Has <b>no effect.</b> The person <b>still</b> has some trouble controlling their thoughts and impulses.</p><p><div style='display:inline-block;background-color:#4169e1;height:27px; width:40px;margin-right: 5px;'></div><b>Cures</b> the deficit. The person becomes <b>able</b> to control their thoughts and impulses.</p></div><div style='position:fixed;top:47%;left:49%;text-align:center;font-size:60px;'>+</div>,,,,html-keyboard-response,6,71723,0.0-5.0-1.0,OCS3O3mK,Self-control,Self-control,75,,True,,,,,,
7,6486.280000000988,<div style='position:relative; min-width:800px; margin-bottom:360px;top:28.8px;'><div style='margin:auto 0;top:0px;text-align:left;'><p style='text-align:center;font-size: 36px;'>Domain: <strong>Self-control</strong></p><p style='text-align:center;font-size: 18px;'>Chances the treatment...</p><p><div style='display:inline-block;background-color:#ed713a;height:27px; width:40px;margin-right: 5px;'></div><b>Worsens</b> the deficit. The person becomes <b>unable</b> to control their thoughts and impulses.</p><p><div style='display:inline-block;background-color:#808080;height:27px; width:40px;margin-right: 5px;'></div>Has <b>no effect.</b> The person <b>still</b> has some trouble controlling their thoughts and impulses.</p><p><div style='display:inline-block;background-color:#4169e1;height:27px; width:40px;margin-right: 5px;'></div><b>Cures</b> the deficit. The person becomes <b>able</b> to control their thoughts and impulses.</p></div><div style='width:800px;margin-top:50px; margin:0 auto;'><div style='float: left;margin-left:225px;'><div style='border: 3px solid #000000;width: 150px; height:95px; background-color: grey;'><p style='text-align: center;margin-top:23%;font-size:14px;font-weight:bold;'>No Treatment</p></div><p class='small'><strong>Option 1</strong></p></div><div style='float: right;margin-right:225px;'><img style='border: 3px solid #000000; width: 150px; height:95px;' src='/static/images/stimulus_img1.png'></img><p class='small'><strong>Option 2</strong></p></div></div></div><div style='position:relative;margin-block-start:0px;margin-block-end:0px;bottom: 160px;'><p style='margin-block-start:0px;margin-block-end:0px;'>Use the 'z' key to select the treatment on the left</p><p style='margin-block-start:0px;margin-block-end:0px;'>Use the 'm' key to select the treatment on the right</p></div>,90.0,,,html-keyboard-response,7,78212,0.0-5.0-2.0,OCS3O3mK,Self-control,Self-control,75,,,right,/static/images/stimulus_img1.png,35.0,30.0,35.0,False
8,,,,,,html-keyboard-response,8,78213,0.0-5.0-0.1,OCS3O3mK,Self-control,Self-control,75,True,,,,,,,
9,,<div style='position:fixed;top:47%;left:49%;text-align:center;font-size:60px;'>+</div>,,,,html-keyboard-response,9,79214,0.0-5.0-1.1,OCS3O3mK,Self-control,Self-control,75,,True,,,,,,
10,3016.6649999991932,<div style='position:relative; min-width:800px; margin-bottom:360px;top:28.8px;'><div style='margin:auto 0;top:0px;text-align:left;'><p style='text-align:center;font-size: 36px;'>Domain: <strong>Self-control</strong></p><p style='text-align:center;font-size: 18px;'>Chances the treatment...</p><p><div style='display:inline-block;background-color:#ed713a;height:27px; width:40px;margin-right: 5px;'></div><b>Worsens</b> the deficit. The person becomes <b>unable</b> to control their thoughts and impulses.</p><p><div style='display:inline-block;background-color:#808080;height:27px; width:40px;margin-right: 5px;'></div>Has <b>no effect.</b> The person <b>still</b> has some trouble controlling their thoughts and impulses.</p><p><div style='display:inline-block;background-color:#4169e1;height:27px; width:40px;margin-right: 5px;'></div><b>Cures</b> the deficit. The person becomes <b>able</b> to control their thoughts and impulses.</p></div><div style='width:800px;margin-top:50px; margin:0 auto;'><div style='float: left;margin-left:225px;'><div style='border: 3px solid #000000;width: 150px; height:95px; background-color: grey;'><p style='text-align: center;margin-top:23%;font-size:14px;font-weight:bold;'>No Treatment</p></div><p class='small'><strong>Option 1</strong></p></div><div style='float: right;margin-right:225px;'><img style='border: 3px solid #000000; width: 150px; height:95px;' src='/static/images/stimulus_img2.png'></img><p class='small'><strong>Option 2</strong></p></div></div></div><div style='position:relative;margin-block-start:0px;margin-block-end:0px;bottom: 160px;'><p style='margin-block-start:0px;margin-block-end:0px;'>Use the 'z' key to select the treatment on the left</p><p style='margin-block-start:0px;margin-block-end:0px;'>Use the 'm' key to select the treatment on the right</p></div>,77.0,,,html-keyboard-response,10,82234,0.0-5.0-2.1,OCS3O3mK,Self-control,Self-control,75,,,right,/static/images/stimulus_img2.png,65.0,5.0,30.0,True
11,,,,,,html-keyboard-response,11,82235,0.0-5.0-0.2,OCS3O3mK,Self-control,Self-control,75,True,,,,,,,
12,,<div style='position:fixed;top:47%;left:49%;text-align:center;font-size:60px;'>+</div>,,,,html-keyboard-response,12,83235,0.0-5.0-1.2,OCS3O3mK,Self-control,Self-control,75,,True,,,,,,
13,1250.985000000568,<div style='position:relative; min-width:800px; margin-bottom:360px;top:28.8px;'><div style='margin:auto 0;top:0px;text-align:left;'><p style='text-align:center;font-size: 36px;'>Domain: <strong>Self-control</strong></p><p style='text-align:center;font-size: 18px;'>Chances the treatment...</p><p><div style='display:inline-block;background-color:#ed713a;height:27px; width:40px;margin-right: 5px;'></div><b>Worsens</b> the deficit. The person becomes <b>unable</b> to control their thoughts and impulses.</p><p><div style='display:inline-block;background-color:#808080;height:27px; width:40px;margin-right: 5px;'></div>Has <b>no effect.</b> The person <b>still</b> has some trouble controlling their thoughts and impulses.</p><p><div style='display:inline-block;background-color:#4169e1;height:27px; width:40px;margin-right: 5px;'></div><b>Cures</b> the deficit. The person becomes <b>able</b> to control their thoughts and impulses.</p></div><div style='width:800px;margin-top:50px; margin:0 auto;'><div style='float: left;margin-left:225px;'><div style='border: 3px solid #000000;width: 150px; height:95px; background-color: grey;'><p style='text-align: center;margin-top:23%;font-size:14px;font-weight:bold;'>No Treatment</p></div><p class='small'><strong>Option 1</strong></p></div><div style='float: right;margin-right:225px;'><img style='border: 3px solid #000000; width: 150px; height:95px;' src='/static/images/stimulus_img3.png'></img><p class='small'><strong>Option 2</strong></p></div></div></div><div style='position:relative;margin-block-start:0px;margin-block-end:0px;bottom: 160px;'><p style='margin-block-start:0px;margin-block-end:0px;'>Use the 'z' key to select the treatment on the left</p><p style='margin-block-start:0px;margin-block-end:0px;'>Use the 'm' key to select the treatment on the right</p></div>,77.0,,,html-keyboard-response,13,84489,0.0-5.0-2.2,OCS3O3mK,Self-control,Self-control,75,,,right,/static/images/stimulus_img3.png,5.0,40.0,55.0,True
14,,,,,,html-keyboard-response,14,84489,0.0-5.0-0.3,OCS3O3mK,Self-control,Self-control,75,True,,,,,,,
15,,<div style='position:fixed;top:47%;left:49%;text-align:center;font-size:60px;'>+</div>,,,,html-keyboard-response,15,85491,0.0-5.0-1.3,OCS3O3mK,Self-control,Self-control,75,,True,,,,,,
16,836.0699999993667,<div style='position:relative; min-width:800px; margin-bottom:360px;top:28.8px;'><div style='margin:auto 0;top:0px;text-align:left;'><p style='text-align:center;font-size: 36px;'>Domain: <strong>Self-control</strong></p><p style='text-align:center;font-size: 18px;'>Chances the treatment...</p><p><div style='display:inline-block;background-color:#ed713a;height:27px; width:40px;margin-right: 5px;'></div><b>Worsens</b> the deficit. The person becomes <b>unable</b> to control their thoughts and impulses.</p><p><div style='display:inline-block;background-color:#808080;height:27px; width:40px;margin-right: 5px;'></div>Has <b>no effect.</b> The person <b>still</b> has some trouble controlling their thoughts and impulses.</p><p><div style='display:inline-block;background-color:#4169e1;height:27px; width:40px;margin-right: 5px;'></div><b>Cures</b> the deficit. The person becomes <b>able</b> to control their thoughts and impulses.</p></div><div style='width:800px;margin-top:50px; margin:0 auto;'><div style='float: left;margin-left:225px;'><div style='border: 3px solid #000000;width: 150px; height:95px; background-color: grey;'><p style='text-align: center;margin-top:23%;font-size:14px;font-weight:bold;'>No Treatment</p></div><p class='small'><strong>Option 1</strong></p></div><div style='float: right;margin-right:225px;'><img style='border: 3px solid #000000; width: 150px; height:95px;' src='/static/images/stimulus_img4.png'></img><p class='small'><strong>Option 2</strong></p></div></div></div><div style='position:relative;margin-block-start:0px;margin-block-end:0px;bottom: 160px;'><p style='margin-block-start:0px;margin-block-end:0px;'>Use the 'z' key to select the treatment on the left</p><p style='margin-block-start:0px;margin-block-end:0px;'>Use the 'm' key to select the treatment on the right</p></div>,90.0,,,html-keyboard-response,16,86329,0.0-5.0-2.3,OCS3O3mK,Self-control,Self-control,75,,,right,/static/images/stimulus_img4.png,40.0,15.0,45.0,False
17,,,,,,html-keyboard-response,17,86330,0.0-5.0-0.4,OCS3O3mK,Self-control,Self-control,75,True,,,,,,,
18,,<div style='position:fixed;top:47%;left:49%;text-align:center;font-size:60px;'>+</div>,,,,html-keyboard-response,18,87331,0.0-5.0-1.4,OCS3O3mK,Self-control,Self-control,75,,True,,,,,,
19,969.6299999995972,<div style='position:relative; min-width:800px; margin-bottom:360px;top:28.8px;'><div style='margin:auto 0;top:0px;text-align:left;'><p style='text-align:center;font-size: 36px;'>Domain: <strong>Self-control</strong></p><p style='text-align:center;font-size: 18px;'>Chances the treatment...</p><p><div style='display:inline-block;background-color:#ed713a;height:27px; width:40px;margin-right: 5px;'></div><b>Worsens</b> the deficit. The person becomes <b>unable</b> to control their thoughts and impulses.</p><p><div style='display:inline-block;background-color:#808080;height:27px; width:40px;margin-right: 5px;'></div>Has <b>no effect.</b> The person <b>still</b> has some trouble controlling their thoughts and impulses.</p><p><div style='display:inline-block;background-color:#4169e1;height:27px; width:40px;margin-right: 5px;'></div><b>Cures</b> the deficit. The person becomes <b>able</b> to control their thoughts and impulses.</p></div><div style='width:800px;margin-top:50px; margin:0 auto;'><div style='float: left;margin-left:225px;'><div style='border: 3px solid #000000;width: 150px; height:95px; background-color: grey;'><p style='text-align: center;margin-top:23%;font-size:14px;font-weight:bold;'>No Treatment</p></div><p class='small'><strong>Option 1</strong></p></div><div style='float: right;margin-right:225px;'><img style='border: 3px solid #000000; width: 150px; height:95px;' src='/static/images/stimulus_img5.png'></img><p class='small'><strong>Option 2</strong></p></div></div></div><div style='position:relative;margin-block-start:0px;margin-block-end:0px;bottom: 160px;'><p style='margin-block-start:0px;margin-block-end:0px;'>Use the 'z' key to select the treatment on the left</p><p style='margin-block-start:0px;margin-block-end:0px;'>Use the 'm' key to select the treatment on the right</p></div>,90.0,,,html-keyboard-response,19,88303,0.0-5.0-2.4,OCS3O3mK,Self-control,Self-control,75,,,right,/static/images/stimulus_img5.png,70.0,5.0,25.0,False
20,,,,,,html-keyboard-response,20,88303,0.0-5.0-0.5,OCS3O3mK,Self-control,Self-control,75,True,,,,,,,
21,,<div style='position:fixed;top:47%;left:49%;text-align:center;font-size:60px;'>+</div>,,,,html-keyboard-response,21,89305,0.0-5.0-1.5,OCS3O3mK,Self-control,Self-control,75,,True,,,,,,
22,1621.3250000000698,<div style='position:relative; min-width:800px; margin-bottom:360px;top:28.8px;'><div style='margin:auto 0;top:0px;text-align:left;'><p style='text-align:center;font-size: 36px;'>Domain: <strong>Self-control</strong></p><p style='text-align:center;font-size: 18px;'>Chances the treatment...</p><p><div style='display:inline-block;background-color:#ed713a;height:27px; width:40px;margin-right: 5px;'></div><b>Worsens</b> the deficit. The person becomes <b>unable</b> to control their thoughts and impulses.</p><p><div style='display:inline-block;background-color:#808080;height:27px; width:40px;margin-right: 5px;'></div>Has <b>no effect.</b> The person <b>still</b> has some trouble controlling their thoughts and impulses.</p><p><div style='display:inline-block;background-color:#4169e1;height:27px; width:40px;margin-right: 5px;'></div><b>Cures</b> the deficit. The person becomes <b>able</b> to control their thoughts and impulses.</p></div><div style='width:800px;margin-top:50px;margin: 0 auto;'><div style='float: left;margin-left:225px;'><img style='border: 3px solid #000000; width: 150px; height:95px;' src='/static/images/stimulus_img6.png'></img><p class='small'><strong>Option 1</strong></p></div><div style='float: right;margin-right:225px;'><div style=' width: 150px; height:95px; border: 3px solid #000000; background-color: grey;'><p style='text-align: center; margin-top:23%;font-size:14px;font-weight:bold;'>No treatment</p></div><p class='small'><strong>Option 2</strong></p></div></div></div><div style='position:relative;margin-block-start:0px;margin-block-end:0px;bottom: 160px;'><p style='margin-block-start:0px;margin-block-end:0px;'>Use the 'z' key to select the treatment on the left</p><p style='margin-block-start:0px;margin-block-end:0px;'>Use the 'm' key to select the treatment on the right</p></div>,77.0,,,html-keyboard-response,22,90928,0.0-5.0-2.5,OCS3O3mK,Self-control,Self-control,75,,,left,/static/images/stimulus_img6.png,50.0,10.0,40.0,False
23,,,,,,html-keyboard-response,23,90929,0.0-5.0-0.6,OCS3O3mK,Self-control,Self-control,75,True,,,,,,,
24,,<div style='position:fixed;top:47%;left:49%;text-align:center;font-size:60px;'>+</div>,,,,html-keyboard-response,24,91931,0.0-5.0-1.6,OCS3O3mK,Self-control,Self-control,75,,True,,,,,,
25,884.1199999988021,<div style='position:relative; min-width:800px; margin-bottom:360px;top:28.8px;'><div style='margin:auto 0;top:0px;text-align:left;'><p style='text-align:center;font-size: 36px;'>Domain: <strong>Self-control</strong></p><p style='text-align:center;font-size: 18px;'>Chances the treatment...</p><p><div style='display:inline-block;background-color:#ed713a;height:27px; width:40px;margin-right: 5px;'></div><b>Worsens</b> the deficit. The person becomes <b>unable</b> to control their thoughts and impulses.</p><p><div style='display:inline-block;background-color:#808080;height:27px; width:40px;margin-right: 5px;'></div>Has <b>no effect.</b> The person <b>still</b> has some trouble controlling their thoughts and impulses.</p><p><div style='display:inline-block;background-color:#4169e1;height:27px; width:40px;margin-right: 5px;'></div><b>Cures</b> the deficit. The person becomes <b>able</b> to control their thoughts and impulses.</p></div><div style='width:800px;margin-top:50px; margin:0 auto;'><div style='float: left;margin-left:225px;'><div style='border: 3px solid #000000;width: 150px; height:95px; background-color: grey;'><p style='text-align: center;margin-top:23%;font-size:14px;font-weight:bold;'>No Treatment</p></div><p class='small'><strong>Option 1</strong></p></div><div style='float: right;margin-right:225px;'><img style='border: 3px solid #000000; width: 150px; height:95px;' src='/static/images/stimulus_img7.png'></img><p class='small'><strong>Option 2</strong></p></div></div></div><div style='position:relative;margin-block-start:0px;margin-block-end:0px;bottom: 160px;'><p style='margin-block-start:0px;margin-block-end:0px;'>Use the 'z' key to select the treatment on the left</p><p style='margin-block-start:0px;margin-block-end:0px;'>Use the 'm' key to select the treatment on the right</p></div>,90.0,,,html-keyboard-response,25,92818,0.0-5.0-2.6,OCS3O3mK,Self-control,Self-control,75,,,right,/static/images/stimulus_img7.png,50.0,25.0,25.0,False
26,,,,,,html-keyboard-response,26,92818,0.0-5.0-0.7,OCS3O3mK,Self-control,Self-control,75,True,,,,,,,
27,,<div style='position:fixed;top:47%;left:49%;text-align:center;font-size:60px;'>+</div>,,,,html-keyboard-response,27,93819,0.0-5.0-1.7,OCS3O3mK,Self-control,Self-control,75,,True,,,,,,
28,2161.5949999995646,<div style='position:relative; min-width:800px; margin-bottom:360px;top:28.8px;'><div style='margin:auto 0;top:0px;text-align:left;'><p style='text-align:center;font-size: 36px;'>Domain: <strong>Self-control</strong></p><p style='text-align:center;font-size: 18px;'>Chances the treatment...</p><p><div style='display:inline-block;background-color:#ed713a;height:27px; width:40px;margin-right: 5px;'></div><b>Worsens</b> the deficit. The person becomes <b>unable</b> to control their thoughts and impulses.</p><p><div style='display:inline-block;background-color:#808080;height:27px; width:40px;margin-right: 5px;'></div>Has <b>no effect.</b> The person <b>still</b> has some trouble controlling their thoughts and impulses.</p><p><div style='display:inline-block;background-color:#4169e1;height:27px; width:40px;margin-right: 5px;'></div><b>Cures</b> the deficit. The person becomes <b>able</b> to control their thoughts and impulses.</p></div><div style='width:800px;margin-top:50px; margin:0 auto;'><div style='float: left;margin-left:225px;'><div style='border: 3px solid #000000;width: 150px; height:95px; background-color: grey;'><p style='text-align: center;margin-top:23%;font-size:14px;font-weight:bold;'>No Treatment</p></div><p class='small'><strong>Option 1</strong></p></div><div style='float: right;margin-right:225px;'><img style='border: 3px solid #000000; width: 150px; height:95px;' src='/static/images/stimulus_img8.png'></img><p class='small'><strong>Option 2</strong></p></div></div></div><div style='position:relative;margin-block-start:0px;margin-block-end:0px;bottom: 160px;'><p style='margin-block-start:0px;margin-block-end:0px;'>Use the 'z' key to select the treatment on the left</p><p style='margin-block-start:0px;margin-block-end:0px;'>Use the 'm' key to select the treatment on the right</p></div>,77.0,,,html-keyboard-response,28,95983,0.0-5.0-2.7,OCS3O3mK,Self-control,Self-control,75,,,right,/static/images/stimulus_img8.png,50.0,40.0,10.0,True
29,,,,,,html-keyboard-response,29,95983,0.0-5.0-0.8,OCS3O3mK,Self-control,Self-control,75,True,,,,,,,
30,,<div style='position:fixed;top:47%;left:49%;text-align:center;font-size:60px;'>+</div>,,,,html-keyboard-response,30,96985,0.0-5.0-1.8,OCS3O3mK,Self-control,Self-control,75,,True,,,,,,
31,673.8650000006601,<div style='position:relative; min-width:800px; margin-bottom:360px;top:28.8px;'><div style='margin:auto 0;top:0px;text-align:left;'><p style='text-align:center;font-size: 36px;'>Domain: <strong>Self-control</strong></p><p style='text-align:center;font-size: 18px;'>Chances the treatment...</p><p><div style='display:inline-block;background-color:#ed713a;height:27px; width:40px;margin-right: 5px;'></div><b>Worsens</b> the deficit. The person becomes <b>unable</b> to control their thoughts and impulses.</p><p><div style='display:inline-block;background-color:#808080;height:27px; width:40px;margin-right: 5px;'></div>Has <b>no effect.</b> The person <b>still</b> has some trouble controlling their thoughts and impulses.</p><p><div style='display:inline-block;background-color:#4169e1;height:27px; width:40px;margin-right: 5px;'></div><b>Cures</b> the deficit. The person becomes <b>able</b> to control their thoughts and impulses.</p></div><div style='width:800px;margin-top:50px; margin:0 auto;'><div style='float: left;margin-left:225px;'><div style='border: 3px solid #000000;width: 150px; height:95px; background-color: grey;'><p style='text-align: center;margin-top:23%;font-size:14px;font-weight:bold;'>No Treatment</p></div><p class='small'><strong>Option 1</strong></p></div><div style='float: right;margin-right:225px;'><img style='border: 3px solid #000000; width: 150px; height:95px;' src='/static/images/stimulus_img9.png'></img><p class='small'><strong>Option 2</strong></p></div></div></div><div style='position:relative;margin-block-start:0px;margin-block-end:0px;bottom: 160px;'><p style='margin-block-start:0px;margin-block-end:0px;'>Use the 'z' key to select the treatment on the left</p><p style='margin-block-start:0px;margin-block-end:0px;'>Use the 'm' key to select the treatment on the right</p></div>,90.0,,,html-keyboard-response,31,97663,0.0-5.0-2.8,OCS3O3mK,Self-control,Self-control,75,,,right,/static/images/stimulus_img9.png,20.0,40.0,40.0,False
32,,,,,,html-keyboard-response,32,97664,0.0-5.0-0.9,OCS3O3mK,Self-control,Self-control,75,True,,,,,,,
33,,<div style='position:fixed;top:47%;left:49%;text-align:center;font-size:60px;'>+</div>,,,,html-keyboard-response,33,98665,0.0-5.0-1.9,OCS3O3mK,Self-control,Self-control,75,,True,,,,,,
34,816.979999999603,<div style='position:relative; min-width:800px; margin-bottom:360px;top:28.8px;'><div style='margin:auto 0;top:0px;text-align:left;'><p style='text-align:center;font-size: 36px;'>Domain: <strong>Self-control</strong></p><p style='text-align:center;font-size: 18px;'>Chances the treatment...</p><p><div style='display:inline-block;background-color:#ed713a;height:27px; width:40px;margin-right: 5px;'></div><b>Worsens</b> the deficit. The person becomes <b>unable</b> to control their thoughts and impulses.</p><p><div style='display:inline-block;background-color:#808080;height:27px; width:40px;margin-right: 5px;'></div>Has <b>no effect.</b> The person <b>still</b> has some trouble controlling their thoughts and impulses.</p><p><div style='display:inline-block;background-color:#4169e1;height:27px; width:40px;margin-right: 5px;'></div><b>Cures</b> the deficit. The person becomes <b>able</b> to control their thoughts and impulses.</p></div><div style='width:800px;margin-top:50px; margin:0 auto;'><div style='float: left;margin-left:225px;'><div style='border: 3px solid #000000;width: 150px; height:95px; background-color: grey;'><p style='text-align: center;margin-top:23%;font-size:14px;font-weight:bold;'>No Treatment</p></div><p class='small'><strong>Option 1</strong></p></div><div style='float: right;margin-right:225px;'><img style='border: 3px solid #000000; width: 150px; height:95px;' src='/static/images/stimulus_img10.png'></img><p class='small'><strong>Option 2</strong></p></div></div></div><div style='position:relative;margin-block-start:0px;margin-block-end:0px;bottom: 160px;'><p style='margin-block-start:0px;margin-block-end:0px;'>Use the 'z' key to select the treatment on the left</p><p style='margin-block-start:0px;margin-block-end:0px;'>Use the 'm' key to select the treatment on the right</p></div>,77.0,,,html-keyboard-response,34,99484,0.0-5.0-2.9,OCS3O3mK,Self-control,Self-control,75,,,right,/static/images/stimulus_img10.png,10.0,45.0,45.0,True
35,,,,,,html-keyboard-response,35,99485,0.0-5.0-0.10,OCS3O3mK,Self-control,Self-control,75,True,,,,,,,
36,,<div style='position:fixed;top:47%;left:49%;text-align:center;font-size:60px;'>+</div>,,,,html-keyboard-response,36,100486,0.0-5.0-1.10,OCS3O3mK,Self-control,Self-control,75,,True,,,,,,
37,987.530000000319,<div style='position:relative; min-width:800px; margin-bottom:360px;top:28.8px;'><div style='margin:auto 0;top:0px;text-align:left;'><p style='text-align:center;font-size: 36px;'>Domain: <strong>Self-control</strong></p><p style='text-align:center;font-size: 18px;'>Chances the treatment...</p><p><div style='display:inline-block;background-color:#ed713a;height:27px; width:40px;margin-right: 5px;'></div><b>Worsens</b> the deficit. The person becomes <b>unable</b> to control their thoughts and impulses.</p><p><div style='display:inline-block;background-color:#808080;height:27px; width:40px;margin-right: 5px;'></div>Has <b>no effect.</b> The person <b>still</b> has some trouble controlling their thoughts and impulses.</p><p><div style='display:inline-block;background-color:#4169e1;height:27px; width:40px;margin-right: 5px;'></div><b>Cures</b> the deficit. The person becomes <b>able</b> to control their thoughts and impulses.</p></div><div style='width:800px;margin-top:50px; margin:0 auto;'><div style='float: left;margin-left:225px;'><div style='border: 3px solid #000000;width: 150px; height:95px; background-color: grey;'><p style='text-align: center;margin-top:23%;font-size:14px;font-weight:bold;'>No Treatment</p></div><p class='small'><strong>Option 1</strong></p></div><div style='float: right;margin-right:225px;'><img style='border: 3px solid #000000; width: 150px; height:95px;' src='/static/images/stimulus_img11.png'></img><p class='small'><strong>Option 2</strong></p></div></div></div><div style='position:relative;margin-block-start:0px;margin-block-end:0px;bottom: 160px;'><p style='margin-block-start:0px;margin-block-end:0px;'>Use the 'z' key to select the treatment on the left</p><p style='margin-block-start:0px;margin-block-end:0px;'>Use the 'm' key to select the treatment on the right</p></div>,90.0,,,html-keyboard-response,37,101477,0.0-5.0-2.10,OCS3O3mK,Self-control,Self-control,75,,,right,/static/images/stimulus_img11.png,25.0,20.0,55.0,False
38,,,,,,html-keyboard-response,38,101478,0.0-5.0-0.11,OCS3O3mK,Self-control,Self-control,75,True,,,,,,,
39,,<div style='position:fixed;top:47%;left:49%;text-align:center;font-size:60px;'>+</div>,,,,html-keyboard-response,39,102479,0.0-5.0-1.11,OCS3O3mK,Self-control,Self-control,75,,True,,,,,,
40,758.3649999996705,<div style='position:relative; min-width:800px; margin-bottom:360px;top:28.8px;'><div style='margin:auto 0;top:0px;text-align:left;'><p style='text-align:center;font-size: 36px;'>Domain: <strong>Self-control</strong></p><p style='text-align:center;font-size: 18px;'>Chances the treatment...</p><p><div style='display:inline-block;background-color:#ed713a;height:27px; width:40px;margin-right: 5px;'></div><b>Worsens</b> the deficit. The person becomes <b>unable</b> to control their thoughts and impulses.</p><p><div style='display:inline-block;background-color:#808080;height:27px; width:40px;margin-right: 5px;'></div>Has <b>no effect.</b> The person <b>still</b> has some trouble controlling their thoughts and impulses.</p><p><div style='display:inline-block;background-color:#4169e1;height:27px; width:40px;margin-right: 5px;'></div><b>Cures</b> the deficit. The person becomes <b>able</b> to control their thoughts and impulses.</p></div><div style='width:800px;margin-top:50px; margin:0 auto;'><div style='float: left;margin-left:225px;'><div style='border: 3px solid #000000;width: 150px; height:95px; background-color: grey;'><p style='text-align: center;margin-top:23%;font-size:14px;font-weight:bold;'>No Treatment</p></div><p class='small'><strong>Option 1</strong></p></div><div style='float: right;margin-right:225px;'><img style='border: 3px solid #000000; width: 150px; height:95px;' src='/static/images/stimulus_img12.png'></img><p class='small'><strong>Option 2</strong></p></div></div></div><div style='position:relative;margin-block-start:0px;margin-block-end:0px;bottom: 160px;'><p style='margin-block-start:0px;margin-block-end:0px;'>Use the 'z' key to select the treatment on the left</p><p style='margin-block-start:0px;margin-block-end:0px;'>Use the 'm' key to select the treatment on the right</p></div>,77.0,,,html-keyboard-response,40,103240,0.0-5.0-2.11,OCS3O3mK,Self-control,Self-control,75,,,right,/static/images/stimulus_img12.png,20.0,60.0,20.0,True
41,,,,,,html-keyboard-response,41,103242,0.0-5.0-0.12,OCS3O3mK,Self-control,Self-control,75,True,,,,,,,
42,,<div style='position:fixed;top:47%;left:49%;text-align:center;font-size:60px;'>+</div>,,,,html-keyboard-response,42,104243,0.0-5.0-1.12,OCS3O3mK,Self-control,Self-control,75,,True,,,,,,
43,934.9350000011327,<div style='position:relative; min-width:800px; margin-bottom:360px;top:28.8px;'><div style='margin:auto 0;top:0px;text-align:left;'><p style='text-align:center;font-size: 36px;'>Domain: <strong>Self-control</strong></p><p style='text-align:center;font-size: 18px;'>Chances the treatment...</p><p><div style='display:inline-block;background-color:#ed713a;height:27px; width:40px;margin-right: 5px;'></div><b>Worsens</b> the deficit. The person becomes <b>unable</b> to control their thoughts and impulses.</p><p><div style='display:inline-block;background-color:#808080;height:27px; width:40px;margin-right: 5px;'></div>Has <b>no effect.</b> The person <b>still</b> has some trouble controlling their thoughts and impulses.</p><p><div style='display:inline-block;background-color:#4169e1;height:27px; width:40px;margin-right: 5px;'></div><b>Cures</b> the deficit. The person becomes <b>able</b> to control their thoughts and impulses.</p></div><div style='width:800px;margin-top:50px; margin:0 auto;'><div style='float: left;margin-left:225px;'><div style='border: 3px solid #000000;width: 150px; height:95px; background-color: grey;'><p style='text-align: center;margin-top:23%;font-size:14px;font-weight:bold;'>No Treatment</p></div><p class='small'><strong>Option 1</strong></p></div><div style='float: right;margin-right:225px;'><img style='border: 3px solid #000000; width: 150px; height:95px;' src='/static/images/stimulus_img13.png'></img><p class='small'><strong>Option 2</strong></p></div></div></div><div style='position:relative;margin-block-start:0px;margin-block-end:0px;bottom: 160px;'><p style='margin-block-start:0px;margin-block-end:0px;'>Use the 'z' key to select the treatment on the left</p><p style='margin-block-start:0px;margin-block-end:0px;'>Use the 'm' key to select the treatment on the right</p></div>,90.0,,,html-keyboard-response,43,105183,0.0-5.0-2.12,OCS3O3mK,Self-control,Self-control,75,,,right,/static/images/stimulus_img13.png,30.0,20.0,50.0,False
44,,,,,,html-keyboard-response,44,105184,0.0-5.0-0.13,OCS3O3mK,Self-control,Self-control,75,True,,,,,,,
45,,<div style='position:fixed;top:47%;left:49%;text-align:center;font-size:60px;'>+</div>,,,,html-keyboard-response,45,106185,0.0-5.0-1.13,OCS3O3mK,Self-control,Self-control,75,,True,,,,,,
46,803.2600000005914,<div style='position:relative; min-width:800px; margin-bottom:360px;top:28.8px;'><div style='margin:auto 0;top:0px;text-align:left;'><p style='text-align:center;font-size: 36px;'>Domain: <strong>Self-control</strong></p><p style='text-align:center;font-size: 18px;'>Chances the treatment...</p><p><div style='display:inline-block;background-color:#ed713a;height:27px; width:40px;margin-right: 5px;'></div><b>Worsens</b> the deficit. The person becomes <b>unable</b> to control their thoughts and impulses.</p><p><div style='display:inline-block;background-color:#808080;height:27px; width:40px;margin-right: 5px;'></div>Has <b>no effect.</b> The person <b>still</b> has some trouble controlling their thoughts and impulses.</p><p><div style='display:inline-block;background-color:#4169e1;height:27px; width:40px;margin-right: 5px;'></div><b>Cures</b> the deficit. The person becomes <b>able</b> to control their thoughts and impulses.</p></div><div style='width:800px;margin-top:50px;margin: 0 auto;'><div style='float: left;margin-left:225px;'><img style='border: 3px solid #000000; width: 150px; height:95px;' src='/static/images/stimulus_img14.png'></img><p class='small'><strong>Option 1</strong></p></div><div style='float: right;margin-right:225px;'><div style=' width: 150px; height:95px; border: 3px solid #000000; background-color: grey;'><p style='text-align: center; margin-top:23%;font-size:14px;font-weight:bold;'>No treatment</p></div><p class='small'><strong>Option 2</strong></p></div></div></div><div style='position:relative;margin-block-start:0px;margin-block-end:0px;bottom: 160px;'><p style='margin-block-start:0px;margin-block-end:0px;'>Use the 'z' key to select the treatment on the left</p><p style='margin-block-start:0px;margin-block-end:0px;'>Use the 'm' key to select the treatment on the right</p></div>,77.0,,,html-keyboard-response,46,106991,0.0-5.0-2.13,OCS3O3mK,Self-control,Self-control,75,,,left,/static/images/stimulus_img14.png,5.0,40.0,55.0,False
47,,,,,,html-keyboard-response,47,106991,0.0-5.0-0.14,OCS3O3mK,Self-control,Self-control,75,True,,,,,,,
48,,<div style='position:fixed;top:47%;left:49%;text-align:center;font-size:60px;'>+</div>,,,,html-keyboard-response,48,107992,0.0-5.0-1.14,OCS3O3mK,Self-control,Self-control,75,,True,,,,,,
49,995.2350000003062,<div style='position:relative; min-width:800px; margin-bottom:360px;top:28.8px;'><div style='margin:auto 0;top:0px;text-align:left;'><p style='text-align:center;font-size: 36px;'>Domain: <strong>Self-control</strong></p><p style='text-align:center;font-size: 18px;'>Chances the treatment...</p><p><div style='display:inline-block;background-color:#ed713a;height:27px; width:40px;margin-right: 5px;'></div><b>Worsens</b> the deficit. The person becomes <b>unable</b> to control their thoughts and impulses.</p><p><div style='display:inline-block;background-color:#808080;height:27px; width:40px;margin-right: 5px;'></div>Has <b>no effect.</b> The person <b>still</b> has some trouble controlling their thoughts and impulses.</p><p><div style='display:inline-block;background-color:#4169e1;height:27px; width:40px;margin-right: 5px;'></div><b>Cures</b> the deficit. The person becomes <b>able</b> to control their thoughts and impulses.</p></div><div style='width:800px;margin-top:50px;margin: 0 auto;'><div style='float: left;margin-left:225px;'><img style='border: 3px solid #000000; width: 150px; height:95px;' src='/static/images/stimulus_img15.png'></img><p class='small'><strong>Option 1</strong></p></div><div style='float: right;margin-right:225px;'><div style=' width: 150px; height:95px; border: 3px solid #000000; background-color: grey;'><p style='text-align: center; margin-top:23%;font-size:14px;font-weight:bold;'>No treatment</p></div><p class='small'><strong>Option 2</strong></p></div></div></div><div style='position:relative;margin-block-start:0px;margin-block-end:0px;bottom: 160px;'><p style='margin-block-start:0px;margin-block-end:0px;'>Use the 'z' key to select the treatment on the left</p><p style='margin-block-start:0px;margin-block-end:0px;'>Use the 'm' key to select the treatment on the right</p></div>,90.0,,,html-keyboard-response,49,108990,0.0-5.0-2.14,OCS3O3mK,Self-control,Self-control,75,,,left,/static/images/stimulus_img15.png,35.0,40.0,25.0,True
50,,,,,,html-keyboard-response,50,108991,0.0-5.0-0.15,OCS3O3mK,Self-control,Self-control,75,True,,,,,,,
51,,<div style='position:fixed;top:47%;left:49%;text-align:center;font-size:60px;'>+</div>,,,,html-keyboard-response,51,109991,0.0-5.0-1.15,OCS3O3mK,Self-control,Self-control,75,,True,,,,,,
52,729.0050000010524,<div style='position:relative; min-width:800px; margin-bottom:360px;top:28.8px;'><div style='margin:auto 0;top:0px;text-align:left;'><p style='text-align:center;font-size: 36px;'>Domain: <strong>Self-control</strong></p><p style='text-align:center;font-size: 18px;'>Chances the treatment...</p><p><div style='display:inline-block;background-color:#ed713a;height:27px; width:40px;margin-right: 5px;'></div><b>Worsens</b> the deficit. The person becomes <b>unable</b> to control their thoughts and impulses.</p><p><div style='display:inline-block;background-color:#808080;height:27px; width:40px;margin-right: 5px;'></div>Has <b>no effect.</b> The person <b>still</b> has some trouble controlling their thoughts and impulses.</p><p><div style='display:inline-block;background-color:#4169e1;height:27px; width:40px;margin-right: 5px;'></div><b>Cures</b> the deficit. The person becomes <b>able</b> to control their thoughts and impulses.</p></div><div style='width:800px;margin-top:50px;margin: 0 auto;'><div style='float: left;margin-left:225px;'><img style='border: 3px solid #000000; width: 150px; height:95px;' src='/static/images/stimulus_img16.png'></img><p class='small'><strong>Option 1</strong></p></div><div style='float: right;margin-right:225px;'><div style=' width: 150px; height:95px; border: 3px solid #000000; background-color: grey;'><p style='text-align: center; margin-top:23%;font-size:14px;font-weight:bold;'>No treatment</p></div><p class='small'><strong>Option 2</strong></p></div></div></div><div style='position:relative;margin-block-start:0px;margin-block-end:0px;bottom: 160px;'><p style='margin-block-start:0px;margin-block-end:0px;'>Use the 'z' key to select the treatment on the left</p><p style='margin-block-start:0px;margin-block-end:0px;'>Use the 'm' key to select the treatment on the right</p></div>,77.0,,,html-keyboard-response,52,110722,0.0-5.0-2.15,OCS3O3mK,Self-control,Self-control,75,,,left,/static/images/stimulus_img16.png,30.0,30.0,40.0,False
53,,,,,,html-keyboard-response,53,110723,0.0-5.0-0.16,OCS3O3mK,Self-control,Self-control,75,True,,,,,,,
54,,<div style='position:fixed;top:47%;left:49%;text-align:center;font-size:60px;'>+</div>,,,,html-keyboard-response,54,111724,0.0-5.0-1.16,OCS3O3mK,Self-control,Self-control,75,,True,,,,,,
55,1280.2549999996845,<div style='position:relative; min-width:800px; margin-bottom:360px;top:28.8px;'><div style='margin:auto 0;top:0px;text-align:left;'><p style='text-align:center;font-size: 36px;'>Domain: <strong>Self-control</strong></p><p style='text-align:center;font-size: 18px;'>Chances the treatment...</p><p><div style='display:inline-block;background-color:#ed713a;height:27px; width:40px;margin-right: 5px;'></div><b>Worsens</b> the deficit. The person becomes <b>unable</b> to control their thoughts and impulses.</p><p><div style='display:inline-block;background-color:#808080;height:27px; width:40px;margin-right: 5px;'></div>Has <b>no effect.</b> The person <b>still</b> has some trouble controlling their thoughts and impulses.</p><p><div style='display:inline-block;background-color:#4169e1;height:27px; width:40px;margin-right: 5px;'></div><b>Cures</b> the deficit. The person becomes <b>able</b> to control their thoughts and impulses.</p></div><div style='width:800px;margin-top:50px; margin:0 auto;'><div style='float: left;margin-left:225px;'><div style='border: 3px solid #000000;width: 150px; height:95px; background-color: grey;'><p style='text-align: center;margin-top:23%;font-size:14px;font-weight:bold;'>No Treatment</p></div><p class='small'><strong>Option 1</strong></p></div><div style='float: right;margin-right:225px;'><img style='border: 3px solid #000000; width: 150px; height:95px;' src='/static/images/stimulus_img17.png'></img><p class='small'><strong>Option 2</strong></p></div></div></div><div style='position:relative;margin-block-start:0px;margin-block-end:0px;bottom: 160px;'><p style='margin-block-start:0px;margin-block-end:0px;'>Use the 'z' key to select the treatment on the left</p><p style='margin-block-start:0px;margin-block-end:0px;'>Use the 'm' key to select the treatment on the right</p></div>,77.0,,,html-keyboard-response,55,113007,0.0-5.0-2.16,OCS3O3mK,Self-control,Self-control,75,,,right,/static/images/stimulus_img17.png,25.0,40.0,35.0,True
56,,,,,,html-keyboard-response,56,113008,0.0-5.0-0.17,OCS3O3mK,Self-control,Self-control,75,True,,,,,,,
57,,<div style='position:fixed;top:47%;left:49%;text-align:center;font-size:60px;'>+</div>,,,,html-keyboard-response,57,114009,0.0-5.0-1.17,OCS3O3mK,Self-control,Self-control,75,,True,,,,,,
58,610.5850000003702,<div style='position:relative; min-width:800px; margin-bottom:360px;top:28.8px;'><div style='margin:auto 0;top:0px;text-align:left;'><p style='text-align:center;font-size: 36px;'>Domain: <strong>Self-control</strong></p><p style='text-align:center;font-size: 18px;'>Chances the treatment...</p><p><div style='display:inline-block;background-color:#ed713a;height:27px; width:40px;margin-right: 5px;'></div><b>Worsens</b> the deficit. The person becomes <b>unable</b> to control their thoughts and impulses.</p><p><div style='display:inline-block;background-color:#808080;height:27px; width:40px;margin-right: 5px;'></div>Has <b>no effect.</b> The person <b>still</b> has some trouble controlling their thoughts and impulses.</p><p><div style='display:inline-block;background-color:#4169e1;height:27px; width:40px;margin-right: 5px;'></div><b>Cures</b> the deficit. The person becomes <b>able</b> to control their thoughts and impulses.</p></div><div style='width:800px;margin-top:50px; margin:0 auto;'><div style='float: left;margin-left:225px;'><div style='border: 3px solid #000000;width: 150px; height:95px; background-color: grey;'><p style='text-align: center;margin-top:23%;font-size:14px;font-weight:bold;'>No Treatment</p></div><p class='small'><strong>Option 1</strong></p></div><div style='float: right;margin-right:225px;'><img style='border: 3px solid #000000; width: 150px; height:95px;' src='/static/images/stimulus_img18.png'></img><p class='small'><strong>Option 2</strong></p></div></div></div><div style='position:relative;margin-block-start:0px;margin-block-end:0px;bottom: 160px;'><p style='margin-block-start:0px;margin-block-end:0px;'>Use the 'z' key to select the treatment on the left</p><p style='margin-block-start:0px;margin-block-end:0px;'>Use the 'm' key to select the treatment on the right</p></div>,90.0,,,html-keyboard-response,58,114621,0.0-5.0-2.17,OCS3O3mK,Self-control,Self-control,75,,,right,/static/images/stimulus_img18.png,50.0,30.0,20.0,False
59,,,,,,html-keyboard-response,59,114622,0.0-5.0-0.18,OCS3O3mK,Self-control,Self-control,75,True,,,,,,,
60,,<div style='position:fixed;top:47%;left:49%;text-align:center;font-size:60px;'>+</div>,,,,html-keyboard-response,60,115624,0.0-5.0-1.18,OCS3O3mK,Self-control,Self-control,75,,True,,,,,,
61,650.3750000010768,<div style='position:relative; min-width:800px; margin-bottom:360px;top:28.8px;'><div style='margin:auto 0;top:0px;text-align:left;'><p style='text-align:center;font-size: 36px;'>Domain: <strong>Self-control</strong></p><p style='text-align:center;font-size: 18px;'>Chances the treatment...</p><p><div style='display:inline-block;background-color:#ed713a;height:27px; width:40px;margin-right: 5px;'></div><b>Worsens</b> the deficit. The person becomes <b>unable</b> to control their thoughts and impulses.</p><p><div style='display:inline-block;background-color:#808080;height:27px; width:40px;margin-right: 5px;'></div>Has <b>no effect.</b> The person <b>still</b> has some trouble controlling their thoughts and impulses.</p><p><div style='display:inline-block;background-color:#4169e1;height:27px; width:40px;margin-right: 5px;'></div><b>Cures</b> the deficit. The person becomes <b>able</b> to control their thoughts and impulses.</p></div><div style='width:800px;margin-top:50px; margin:0 auto;'><div style='float: left;margin-left:225px;'><div style='border: 3px solid #000000;width: 150px; height:95px; background-color: grey;'><p style='text-align: center;margin-top:23%;font-size:14px;font-weight:bold;'>No Treatment</p></div><p class='small'><strong>Option 1</strong></p></div><div style='float: right;margin-right:225px;'><img style='border: 3px solid #000000; width: 150px; height:95px;' src='/static/images/stimulus_img19.png'></img><p class='small'><strong>Option 2</strong></p></div></div></div><div style='position:relative;margin-block-start:0px;margin-block-end:0px;bottom: 160px;'><p style='margin-block-start:0px;margin-block-end:0px;'>Use the 'z' key to select the treatment on the left</p><p style='margin-block-start:0px;margin-block-end:0px;'>Use the 'm' key to select the treatment on the right</p></div>,90.0,,,html-keyboard-response,61,116276,0.0-5.0-2.18,OCS3O3mK,Self-control,Self-control,75,,,right,/static/images/stimulus_img19.png,45.0,20.0,35.0,False
62,,,,,,html-keyboard-response,62,116277,0.0-5.0-0.19,OCS3O3mK,Self-control,Self-control,75,True,,,,,,,
63,,<div style='position:fixed;top:47%;left:49%;text-align:center;font-size:60px;'>+</div>,,,,html-keyboard-response,63,117277,0.0-5.0-1.19,OCS3O3mK,Self-control,Self-control,75,,True,,,,,,
64,621.9650000002584,<div style='position:relative; min-width:800px; margin-bottom:360px;top:28.8px;'><div style='margin:auto 0;top:0px;text-align:left;'><p style='text-align:center;font-size: 36px;'>Domain: <strong>Self-control</strong></p><p style='text-align:center;font-size: 18px;'>Chances the treatment...</p><p><div style='display:inline-block;background-color:#ed713a;height:27px; width:40px;margin-right: 5px;'></div><b>Worsens</b> the deficit. The person becomes <b>unable</b> to control their thoughts and impulses.</p><p><div style='display:inline-block;background-color:#808080;height:27px; width:40px;margin-right: 5px;'></div>Has <b>no effect.</b> The person <b>still</b> has some trouble controlling their thoughts and impulses.</p><p><div style='display:inline-block;background-color:#4169e1;height:27px; width:40px;margin-right: 5px;'></div><b>Cures</b> the deficit. The person becomes <b>able</b> to control their thoughts and impulses.</p></div><div style='width:800px;margin-top:50px; margin:0 auto;'><div style='float: left;margin-left:225px;'><div style='border: 3px solid #000000;width: 150px; height:95px; background-color: grey;'><p style='text-align: center;margin-top:23%;font-size:14px;font-weight:bold;'>No Treatment</p></div><p class='small'><strong>Option 1</strong></p></div><div style='float: right;margin-right:225px;'><img style='border: 3px solid #000000; width: 150px; height:95px;' src='/static/images/stimulus_img20.png'></img><p class='small'><strong>Option 2</strong></p></div></div></div><div style='position:relative;margin-block-start:0px;margin-block-end:0px;bottom: 160px;'><p style='margin-block-start:0px;margin-block-end:0px;'>Use the 'z' key to select the treatment on the left</p><p style='margin-block-start:0px;margin-block-end:0px;'>Use the 'm' key to select the treatment on the right</p></div>,90.0,,,html-keyboard-response,64,117902,0.0-5.0-2.19,OCS3O3mK,Self-control,Self-control,75,,,right,/static/images/stimulus_img20.png,65.0,10.0,25.0,False
65,,,,,,html-keyboard-response,65,117902,0.0-5.0-0.20,OCS3O3mK,Self-control,Self-control,75,True,,,,,,,
66,,<div style='position:fixed;top:47%;left:49%;text-align:center;font-size:60px;'>+</div>,,,,html-keyboard-response,66,118904,0.0-5.0-1.20,OCS3O3mK,Self-control,Self-control,75,,True,,,,,,
67,1056.7250000003842,<div style='position:relative; min-width:800px; margin-bottom:360px;top:28.8px;'><div style='margin:auto 0;top:0px;text-align:left;'><p style='text-align:center;font-size: 36px;'>Domain: <strong>Self-control</strong></p><p style='text-align:center;font-size: 18px;'>Chances the treatment...</p><p><div style='display:inline-block;background-color:#ed713a;height:27px; width:40px;margin-right: 5px;'></div><b>Worsens</b> the deficit. The person becomes <b>unable</b> to control their thoughts and impulses.</p><p><div style='display:inline-block;background-color:#808080;height:27px; width:40px;margin-right: 5px;'></div>Has <b>no effect.</b> The person <b>still</b> has some trouble controlling their thoughts and impulses.</p><p><div style='display:inline-block;background-color:#4169e1;height:27px; width:40px;margin-right: 5px;'></div><b>Cures</b> the deficit. The person becomes <b>able</b> to control their thoughts and impulses.</p></div><div style='width:800px;margin-top:50px;margin: 0 auto;'><div style='float: left;margin-left:225px;'><img style='border: 3px solid #000000; width: 150px; height:95px;' src='/static/images/stimulus_img21.png'></img><p class='small'><strong>Option 1</strong></p></div><div style='float: right;margin-right:225px;'><div style=' width: 150px; height:95px; border: 3px solid #000000; background-color: grey;'><p style='text-align: center; margin-top:23%;font-size:14px;font-weight:bold;'>No treatment</p></div><p class='small'><strong>Option 2</strong></p></div></div></div><div style='position:relative;margin-block-start:0px;margin-block-end:0px;bottom: 160px;'><p style='margin-block-start:0px;margin-block-end:0px;'>Use the 'z' key to select the treatment on the left</p><p style='margin-block-start:0px;margin-block-end:0px;'>Use the 'm' key to select the treatment on the right</p></div>,77.0,,,html-keyboard-response,67,119963,0.0-5.0-2.20,OCS3O3mK,Self-control,Self-control,75,,,left,/static/images/stimulus_img21.png,70.0,25.0,5.0,False
68,,,,,,html-keyboard-response,68,119963,0.0-5.0-0.21,OCS3O3mK,Self-control,Self-control,75,True,,,,,,,
69,,<div style='position:fixed;top:47%;left:49%;text-align:center;font-size:60px;'>+</div>,,,,html-keyboard-response,69,120964,0.0-5.0-1.21,OCS3O3mK,Self-control,Self-control,75,,True,,,,,,
70,1264.6550000008428,<div style='position:relative; min-width:800px; margin-bottom:360px;top:28.8px;'><div style='margin:auto 0;top:0px;text-align:left;'><p style='text-align:center;font-size: 36px;'>Domain: <strong>Self-control</strong></p><p style='text-align:center;font-size: 18px;'>Chances the treatment...</p><p><div style='display:inline-block;background-color:#ed713a;height:27px; width:40px;margin-right: 5px;'></div><b>Worsens</b> the deficit. The person becomes <b>unable</b> to control their thoughts and impulses.</p><p><div style='display:inline-block;background-color:#808080;height:27px; width:40px;margin-right: 5px;'></div>Has <b>no effect.</b> The person <b>still</b> has some trouble controlling their thoughts and impulses.</p><p><div style='display:inline-block;background-color:#4169e1;height:27px; width:40px;margin-right: 5px;'></div><b>Cures</b> the deficit. The person becomes <b>able</b> to control their thoughts and impulses.</p></div><div style='width:800px;margin-top:50px; margin:0 auto;'><div style='float: left;margin-left:225px;'><div style='border: 3px solid #000000;width: 150px; height:95px; background-color: grey;'><p style='text-align: center;margin-top:23%;font-size:14px;font-weight:bold;'>No Treatment</p></div><p class='small'><strong>Option 1</strong></p></div><div style='float: right;margin-right:225px;'><img style='border: 3px solid #000000; width: 150px; height:95px;' src='/static/images/stimulus_img22.png'></img><p class='small'><strong>Option 2</strong></p></div></div></div><div style='position:relative;margin-block-start:0px;margin-block-end:0px;bottom: 160px;'><p style='margin-block-start:0px;margin-block-end:0px;'>Use the 'z' key to select the treatment on the left</p><p style='margin-block-start:0px;margin-block-end:0px;'>Use the 'm' key to select the treatment on the right</p></div>,90.0,,,html-keyboard-response,70,122231,0.0-5.0-2.21,OCS3O3mK,Self-control,Self-control,75,,,right,/static/images/stimulus_img22.png,25.0,70.0,5.0,False
71,,,,,,html-keyboard-response,71,122232,0.0-5.0-0.22,OCS3O3mK,Self-control,Self-control,75,True,,,,,,,
72,,<div style='position:fixed;top:47%;left:49%;text-align:center;font-size:60px;'>+</div>,,,,html-keyboard-response,72,123233,0.0-5.0-1.22,OCS3O3mK,Self-control,Self-control,75,,True,,,,,,
73,1761.1649999998917,<div style='position:relative; min-width:800px; margin-bottom:360px;top:28.8px;'><div style='margin:auto 0;top:0px;text-align:left;'><p style='text-align:center;font-size: 36px;'>Domain: <strong>Self-control</strong></p><p style='text-align:center;font-size: 18px;'>Chances the treatment...</p><p><div style='display:inline-block;background-color:#ed713a;height:27px; width:40px;margin-right: 5px;'></div><b>Worsens</b> the deficit. The person becomes <b>unable</b> to control their thoughts and impulses.</p><p><div style='display:inline-block;background-color:#808080;height:27px; width:40px;margin-right: 5px;'></div>Has <b>no effect.</b> The person <b>still</b> has some trouble controlling their thoughts and impulses.</p><p><div style='display:inline-block;background-color:#4169e1;height:27px; width:40px;margin-right: 5px;'></div><b>Cures</b> the deficit. The person becomes <b>able</b> to control their thoughts and impulses.</p></div><div style='width:800px;margin-top:50px; margin:0 auto;'><div style='float: left;margin-left:225px;'><div style='border: 3px solid #000000;width: 150px; height:95px; background-color: grey;'><p style='text-align: center;margin-top:23%;font-size:14px;font-weight:bold;'>No Treatment</p></div><p class='small'><strong>Option 1</strong></p></div><div style='float: right;margin-right:225px;'><img style='border: 3px solid #000000; width: 150px; height:95px;' src='/static/images/stimulus_img23.png'></img><p class='small'><strong>Option 2</strong></p></div></div></div><div style='position:relative;margin-block-start:0px;margin-block-end:0px;bottom: 160px;'><p style='margin-block-start:0px;margin-block-end:0px;'>Use the 'z' key to select the treatment on the left</p><p style='margin-block-start:0px;margin-block-end:0px;'>Use the 'm' key to select the treatment on the right</p></div>,90.0,,,html-keyboard-response,73,124997,0.0-5.0-2.22,OCS3O3mK,Self-control,Self-control,75,,,right,/static/images/stimulus_img23.png,40.0,45.0,15.0,False
74,,,,,,html-keyboard-response,74,124998,0.0-5.0-0.23,OCS3O3mK,Self-control,Self-control,75,True,,,,,,,
75,,<div style='position:fixed;top:47%;left:49%;text-align:center;font-size:60px;'>+</div>,,,,html-keyboard-response,75,125999,0.0-5.0-1.23,OCS3O3mK,Self-control,Self-control,75,,True,,,,,,
76,767.9600000010396,<div style='position:relative; min-width:800px; margin-bottom:360px;top:28.8px;'><div style='margin:auto 0;top:0px;text-align:left;'><p style='text-align:center;font-size: 36px;'>Domain: <strong>Self-control</strong></p><p style='text-align:center;font-size: 18px;'>Chances the treatment...</p><p><div style='display:inline-block;background-color:#ed713a;height:27px; width:40px;margin-right: 5px;'></div><b>Worsens</b> the deficit. The person becomes <b>unable</b> to control their thoughts and impulses.</p><p><div style='display:inline-block;background-color:#808080;height:27px; width:40px;margin-right: 5px;'></div>Has <b>no effect.</b> The person <b>still</b> has some trouble controlling their thoughts and impulses.</p><p><div style='display:inline-block;background-color:#4169e1;height:27px; width:40px;margin-right: 5px;'></div><b>Cures</b> the deficit. The person becomes <b>able</b> to control their thoughts and impulses.</p></div><div style='width:800px;margin-top:50px; margin:0 auto;'><div style='float: left;margin-left:225px;'><div style='border: 3px solid #000000;width: 150px; height:95px; background-color: grey;'><p style='text-align: center;margin-top:23%;font-size:14px;font-weight:bold;'>No Treatment</p></div><p class='small'><strong>Option 1</strong></p></div><div style='float: right;margin-right:225px;'><img style='border: 3px solid #000000; width: 150px; height:95px;' src='/static/images/stimulus_img24.png'></img><p class='small'><strong>Option 2</strong></p></div></div></div><div style='position:relative;margin-block-start:0px;margin-block-end:0px;bottom: 160px;'><p style='margin-block-start:0px;margin-block-end:0px;'>Use the 'z' key to select the treatment on the left</p><p style='margin-block-start:0px;margin-block-end:0px;'>Use the 'm' key to select the treatment on the right</p></div>,90.0,,,html-keyboard-response,76,126769,0.0-5.0-2.23,OCS3O3mK,Self-control,Self-control,75,,,right,/static/images/stimulus_img24.png,55.0,40.0,5.0,False
77,,,,,,html-keyboard-response,77,126769,0.0-5.0-0.24,OCS3O3mK,Self-control,Self-control,75,True,,,,,,,
78,,<div style='position:fixed;top:47%;left:49%;text-align:center;font-size:60px;'>+</div>,,,,html-keyboard-response,78,127770,0.0-5.0-1.24,OCS3O3mK,Self-control,Self-control,75,,True,,,,,,
79,631.1949999999197,<div style='position:relative; min-width:800px; margin-bottom:360px;top:28.8px;'><div style='margin:auto 0;top:0px;text-align:left;'><p style='text-align:center;font-size: 36px;'>Domain: <strong>Self-control</strong></p><p style='text-align:center;font-size: 18px;'>Chances the treatment...</p><p><div style='display:inline-block;background-color:#ed713a;height:27px; width:40px;margin-right: 5px;'></div><b>Worsens</b> the deficit. The person becomes <b>unable</b> to control their thoughts and impulses.</p><p><div style='display:inline-block;background-color:#808080;height:27px; width:40px;margin-right: 5px;'></div>Has <b>no effect.</b> The person <b>still</b> has some trouble controlling their thoughts and impulses.</p><p><div style='display:inline-block;background-color:#4169e1;height:27px; width:40px;margin-right: 5px;'></div><b>Cures</b> the deficit. The person becomes <b>able</b> to control their thoughts and impulses.</p></div><div style='width:800px;margin-top:50px;margin: 0 auto;'><div style='float: left;margin-left:225px;'><img style='border: 3px solid #000000; width: 150px; height:95px;' src='/static/images/stimulus_img25.png'></img><p class='small'><strong>Option 1</strong></p></div><div style='float: right;margin-right:225px;'><div style=' width: 150px; height:95px; border: 3px solid #000000; background-color: grey;'><p style='text-align: center; margin-top:23%;font-size:14px;font-weight:bold;'>No treatment</p></div><p class='small'><strong>Option 2</strong></p></div></div></div><div style='position:relative;margin-block-start:0px;margin-block-end:0px;bottom: 160px;'><p style='margin-block-start:0px;margin-block-end:0px;'>Use the 'z' key to select the treatment on the left</p><p style='margin-block-start:0px;margin-block-end:0px;'>Use the 'm' key to select the treatment on the right</p></div>,77.0,,,html-keyboard-response,79,128404,0.0-5.0-2.24,OCS3O3mK,Self-control,Self-control,75,,,left,/static/images/stimulus_img25.png,70.0,5.0,25.0,False
80,,,,,,html-keyboard-response,80,128405,0.0-5.0-0.25,OCS3O3mK,Self-control,Self-control,75,True,,,,,,,
81,,<div style='position:fixed;top:47%;left:49%;text-align:center;font-size:60px;'>+</div>,,,,html-keyboard-response,81,129406,0.0-5.0-1.25,OCS3O3mK,Self-control,Self-control,75,,True,,,,,,
82,626.6500000001688,<div style='position:relative; min-width:800px; margin-bottom:360px;top:28.8px;'><div style='margin:auto 0;top:0px;text-align:left;'><p style='text-align:center;font-size: 36px;'>Domain: <strong>Self-control</strong></p><p style='text-align:center;font-size: 18px;'>Chances the treatment...</p><p><div style='display:inline-block;background-color:#ed713a;height:27px; width:40px;margin-right: 5px;'></div><b>Worsens</b> the deficit. The person becomes <b>unable</b> to control their thoughts and impulses.</p><p><div style='display:inline-block;background-color:#808080;height:27px; width:40px;margin-right: 5px;'></div>Has <b>no effect.</b> The person <b>still</b> has some trouble controlling their thoughts and impulses.</p><p><div style='display:inline-block;background-color:#4169e1;height:27px; width:40px;margin-right: 5px;'></div><b>Cures</b> the deficit. The person becomes <b>able</b> to control their thoughts and impulses.</p></div><div style='width:800px;margin-top:50px;margin: 0 auto;'><div style='float: left;margin-left:225px;'><img style='border: 3px solid #000000; width: 150px; height:95px;' src='/static/images/stimulus_img26.png'></img><p class='small'><strong>Option 1</strong></p></div><div style='float: right;margin-right:225px;'><div style=' width: 150px; height:95px; border: 3px solid #000000; background-color: grey;'><p style='text-align: center; margin-top:23%;font-size:14px;font-weight:bold;'>No treatment</p></div><p class='small'><strong>Option 2</strong></p></div></div></div><div style='position:relative;margin-block-start:0px;margin-block-end:0px;bottom: 160px;'><p style='margin-block-start:0px;margin-block-end:0px;'>Use the 'z' key to select the treatment on the left</p><p style='margin-block-start:0px;margin-block-end:0px;'>Use the 'm' key to select the treatment on the right</p></div>,77.0,,,html-keyboard-response,82,130035,0.0-5.0-2.25,OCS3O3mK,Self-control,Self-control,75,,,left,/static/images/stimulus_img26.png,5.0,5.0,90.0,False
83,,,,,,html-keyboard-response,83,130036,0.0-5.0-0.26,OCS3O3mK,Self-control,Self-control,75,True,,,,,,,
84,,<div style='position:fixed;top:47%;left:49%;text-align:center;font-size:60px;'>+</div>,,,,html-keyboard-response,84,131037,0.0-5.0-1.26,OCS3O3mK,Self-control,Self-control,75,,True,,,,,,
85,1059.3599999992875,<div style='position:relative; min-width:800px; margin-bottom:360px;top:28.8px;'><div style='margin:auto 0;top:0px;text-align:left;'><p style='text-align:center;font-size: 36px;'>Domain: <strong>Self-control</strong></p><p style='text-align:center;font-size: 18px;'>Chances the treatment...</p><p><div style='display:inline-block;background-color:#ed713a;height:27px; width:40px;margin-right: 5px;'></div><b>Worsens</b> the deficit. The person becomes <b>unable</b> to control their thoughts and impulses.</p><p><div style='display:inline-block;background-color:#808080;height:27px; width:40px;margin-right: 5px;'></div>Has <b>no effect.</b> The person <b>still</b> has some trouble controlling their thoughts and impulses.</p><p><div style='display:inline-block;background-color:#4169e1;height:27px; width:40px;margin-right: 5px;'></div><b>Cures</b> the deficit. The person becomes <b>able</b> to control their thoughts and impulses.</p></div><div style='width:800px;margin-top:50px;margin: 0 auto;'><div style='float: left;margin-left:225px;'><img style='border: 3px solid #000000; width: 150px; height:95px;' src='/static/images/stimulus_img27.png'></img><p class='small'><strong>Option 1</strong></p></div><div style='float: right;margin-right:225px;'><div style=' width: 150px; height:95px; border: 3px solid #000000; background-color: grey;'><p style='text-align: center; margin-top:23%;font-size:14px;font-weight:bold;'>No treatment</p></div><p class='small'><strong>Option 2</strong></p></div></div></div><div style='position:relative;margin-block-start:0px;margin-block-end:0px;bottom: 160px;'><p style='margin-block-start:0px;margin-block-end:0px;'>Use the 'z' key to select the treatment on the left</p><p style='margin-block-start:0px;margin-block-end:0px;'>Use the 'm' key to select the treatment on the right</p></div>,90.0,,,html-keyboard-response,85,132099,0.0-5.0-2.26,OCS3O3mK,Self-control,Self-control,75,,,left,/static/images/stimulus_img27.png,20.0,45.0,35.0,True
86,,,,,,html-keyboard-response,86,132100,0.0-5.0-0.27,OCS3O3mK,Self-control,Self-control,75,True,,,,,,,
87,,<div style='position:fixed;top:47%;left:49%;text-align:center;font-size:60px;'>+</div>,,,,html-keyboard-response,87,133100,0.0-5.0-1.27,OCS3O3mK,Self-control,Self-control,75,,True,,,,,,
88,914.6949999994831,<div style='position:relative; min-width:800px; margin-bottom:360px;top:28.8px;'><div style='margin:auto 0;top:0px;text-align:left;'><p style='text-align:center;font-size: 36px;'>Domain: <strong>Self-control</strong></p><p style='text-align:center;font-size: 18px;'>Chances the treatment...</p><p><div style='display:inline-block;background-color:#ed713a;height:27px; width:40px;margin-right: 5px;'></div><b>Worsens</b> the deficit. The person becomes <b>unable</b> to control their thoughts and impulses.</p><p><div style='display:inline-block;background-color:#808080;height:27px; width:40px;margin-right: 5px;'></div>Has <b>no effect.</b> The person <b>still</b> has some trouble controlling their thoughts and impulses.</p><p><div style='display:inline-block;background-color:#4169e1;height:27px; width:40px;margin-right: 5px;'></div><b>Cures</b> the deficit. The person becomes <b>able</b> to control their thoughts and impulses.</p></div><div style='width:800px;margin-top:50px; margin:0 auto;'><div style='float: left;margin-left:225px;'><div style='border: 3px solid #000000;width: 150px; height:95px; background-color: grey;'><p style='text-align: center;margin-top:23%;font-size:14px;font-weight:bold;'>No Treatment</p></div><p class='small'><strong>Option 1</strong></p></div><div style='float: right;margin-right:225px;'><img style='border: 3px solid #000000; width: 150px; height:95px;' src='/static/images/stimulus_img28.png'></img><p class='small'><strong>Option 2</strong></p></div></div></div><div style='position:relative;margin-block-start:0px;margin-block-end:0px;bottom: 160px;'><p style='margin-block-start:0px;margin-block-end:0px;'>Use the 'z' key to select the treatment on the left</p><p style='margin-block-start:0px;margin-block-end:0px;'>Use the 'm' key to select the treatment on the right</p></div>,90.0,,,html-keyboard-response,88,134017,0.0-5.0-2.27,OCS3O3mK,Self-control,Self-control,75,,,right,/static/images/stimulus_img28.png,35.0,40.0,25.0,False
89,,,,,,html-keyboard-response,89,134018,0.0-5.0-0.28,OCS3O3mK,Self-control,Self-control,75,True,,,,,,,
90,,<div style='position:fixed;top:47%;left:49%;text-align:center;font-size:60px;'>+</div>,,,,html-keyboard-response,90,135019,0.0-5.0-1.28,OCS3O3mK,Self-control,Self-control,75,,True,,,,,,
91,698.2800000005227,<div style='position:relative; min-width:800px; margin-bottom:360px;top:28.8px;'><div style='margin:auto 0;top:0px;text-align:left;'><p style='text-align:center;font-size: 36px;'>Domain: <strong>Self-control</strong></p><p style='text-align:center;font-size: 18px;'>Chances the treatment...</p><p><div style='display:inline-block;background-color:#ed713a;height:27px; width:40px;margin-right: 5px;'></div><b>Worsens</b> the deficit. The person becomes <b>unable</b> to control their thoughts and impulses.</p><p><div style='display:inline-block;background-color:#808080;height:27px; width:40px;margin-right: 5px;'></div>Has <b>no effect.</b> The person <b>still</b> has some trouble controlling their thoughts and impulses.</p><p><div style='display:inline-block;background-color:#4169e1;height:27px; width:40px;margin-right: 5px;'></div><b>Cures</b> the deficit. The person becomes <b>able</b> to control their thoughts and impulses.</p></div><div style='width:800px;margin-top:50px;margin: 0 auto;'><div style='float: left;margin-left:225px;'><img style='border: 3px solid #000000; width: 150px; height:95px;' src='/static/images/stimulus_img29.png'></img><p class='small'><strong>Option 1</strong></p></div><div style='float: right;margin-right:225px;'><div style=' width: 150px; height:95px; border: 3px solid #000000; background-color: grey;'><p style='text-align: center; margin-top:23%;font-size:14px;font-weight:bold;'>No treatment</p></div><p class='small'><strong>Option 2</strong></p></div></div></div><div style='position:relative;margin-block-start:0px;margin-block-end:0px;bottom: 160px;'><p style='margin-block-start:0px;margin-block-end:0px;'>Use the 'z' key to select the treatment on the left</p><p style='margin-block-start:0px;margin-block-end:0px;'>Use the 'm' key to select the treatment on the right</p></div>,77.0,,,html-keyboard-response,91,135719,0.0-5.0-2.28,OCS3O3mK,Self-control,Self-control,75,,,left,/static/images/stimulus_img29.png,60.0,35.0,5.0,False
92,,,,,,html-keyboard-response,92,135720,0.0-5.0-0.29,OCS3O3mK,Self-control,Self-control,75,True,,,,,,,
93,,<div style='position:fixed;top:47%;left:49%;text-align:center;font-size:60px;'>+</div>,,,,html-keyboard-response,93,136720,0.0-5.0-1.29,OCS3O3mK,Self-control,Self-control,75,,True,,,,,,
94,1050.054999999702,<div style='position:relative; min-width:800px; margin-bottom:360px;top:28.8px;'><div style='margin:auto 0;top:0px;text-align:left;'><p style='text-align:center;font-size: 36px;'>Domain: <strong>Self-control</strong></p><p style='text-align:center;font-size: 18px;'>Chances the treatment...</p><p><div style='display:inline-block;background-color:#ed713a;height:27px; width:40px;margin-right: 5px;'></div><b>Worsens</b> the deficit. The person becomes <b>unable</b> to control their thoughts and impulses.</p><p><div style='display:inline-block;background-color:#808080;height:27px; width:40px;margin-right: 5px;'></div>Has <b>no effect.</b> The person <b>still</b> has some trouble controlling their thoughts and impulses.</p><p><div style='display:inline-block;background-color:#4169e1;height:27px; width:40px;margin-right: 5px;'></div><b>Cures</b> the deficit. The person becomes <b>able</b> to control their thoughts and impulses.</p></div><div style='width:800px;margin-top:50px; margin:0 auto;'><div style='float: left;margin-left:225px;'><div style='border: 3px solid #000000;width: 150px; height:95px; background-color: grey;'><p style='text-align: center;margin-top:23%;font-size:14px;font-weight:bold;'>No Treatment</p></div><p class='small'><strong>Option 1</strong></p></div><div style='float: right;margin-right:225px;'><img style='border: 3px solid #000000; width: 150px; height:95px;' src='/static/images/stimulus_img30.png'></img><p class='small'><strong>Option 2</strong></p></div></div></div><div style='position:relative;margin-block-start:0px;margin-block-end:0px;bottom: 160px;'><p style='margin-block-start:0px;margin-block-end:0px;'>Use the 'z' key to select the treatment on the left</p><p style='margin-block-start:0px;margin-block-end:0px;'>Use the 'm' key to select the treatment on the right</p></div>,77.0,,,html-keyboard-response,94,137772,0.0-5.0-2.29,OCS3O3mK,Self-control,Self-control,75,,,right,/static/images/stimulus_img30.png,15.0,60.0,25.0,True
95,,,,,,html-keyboard-response,95,137773,0.0-5.0-0.30,OCS3O3mK,Self-control,Self-control,75,True,,,,,,,
96,,<div style='position:fixed;top:47%;left:49%;text-align:center;font-size:60px;'>+</div>,,,,html-keyboard-response,96,138774,0.0-5.0-1.30,OCS3O3mK,Self-control,Self-control,75,,True,,,,,,
97,734.8050000000512,<div style='position:relative; min-width:800px; margin-bottom:360px;top:28.8px;'><div style='margin:auto 0;top:0px;text-align:left;'><p style='text-align:center;font-size: 36px;'>Domain: <strong>Self-control</strong></p><p style='text-align:center;font-size: 18px;'>Chances the treatment...</p><p><div style='display:inline-block;background-color:#ed713a;height:27px; width:40px;margin-right: 5px;'></div><b>Worsens</b> the deficit. The person becomes <b>unable</b> to control their thoughts and impulses.</p><p><div style='display:inline-block;background-color:#808080;height:27px; width:40px;margin-right: 5px;'></div>Has <b>no effect.</b> The person <b>still</b> has some trouble controlling their thoughts and impulses.</p><p><div style='display:inline-block;background-color:#4169e1;height:27px; width:40px;margin-right: 5px;'></div><b>Cures</b> the deficit. The person becomes <b>able</b> to control their thoughts and impulses.</p></div><div style='width:800px;margin-top:50px;margin: 0 auto;'><div style='float: left;margin-left:225px;'><img style='border: 3px solid #000000; width: 150px; height:95px;' src='/static/images/stimulus_img31.png'></img><p class='small'><strong>Option 1</strong></p></div><div style='float: right;margin-right:225px;'><div style=' width: 150px; height:95px; border: 3px solid #000000; background-color: grey;'><p style='text-align: center; margin-top:23%;font-size:14px;font-weight:bold;'>No treatment</p></div><p class='small'><strong>Option 2</strong></p></div></div></div><div style='position:relative;margin-block-start:0px;margin-block-end:0px;bottom: 160px;'><p style='margin-block-start:0px;margin-block-end:0px;'>Use the 'z' key to select the treatment on the left</p><p style='margin-block-start:0px;margin-block-end:0px;'>Use the 'm' key to select the treatment on the right</p></div>,90.0,,,html-keyboard-response,97,139513,0.0-5.0-2.30,OCS3O3mK,Self-control,Self-control,75,,,left,/static/images/stimulus_img31.png,5.0,65.0,30.0,True
98,,,,,,html-keyboard-response,98,139514,0.0-5.0-0.31,OCS3O3mK,Self-control,Self-control,75,True,,,,,,,
99,,<div style='position:fixed;top:47%;left:49%;text-align:center;font-size:60px;'>+</div>,,,,html-keyboard-response,99,140515,0.0-5.0-1.31,OCS3O3mK,Self-control,Self-control,75,,True,,,,,,
100,596.8599999996659,<div style='position:relative; min-width:800px; margin-bottom:360px;top:28.8px;'><div style='margin:auto 0;top:0px;text-align:left;'><p style='text-align:center;font-size: 36px;'>Domain: <strong>Self-control</strong></p><p style='text-align:center;font-size: 18px;'>Chances the treatment...</p><p><div style='display:inline-block;background-color:#ed713a;height:27px; width:40px;margin-right: 5px;'></div><b>Worsens</b> the deficit. The person becomes <b>unable</b> to control their thoughts and impulses.</p><p><div style='display:inline-block;background-color:#808080;height:27px; width:40px;margin-right: 5px;'></div>Has <b>no effect.</b> The person <b>still</b> has some trouble controlling their thoughts and impulses.</p><p><div style='display:inline-block;background-color:#4169e1;height:27px; width:40px;margin-right: 5px;'></div><b>Cures</b> the deficit. The person becomes <b>able</b> to control their thoughts and impulses.</p></div><div style='width:800px;margin-top:50px; margin:0 auto;'><div style='float: left;margin-left:225px;'><div style='border: 3px solid #000000;width: 150px; height:95px; background-color: grey;'><p style='text-align: center;margin-top:23%;font-size:14px;font-weight:bold;'>No Treatment</p></div><p class='small'><strong>Option 1</strong></p></div><div style='float: right;margin-right:225px;'><img style='border: 3px solid #000000; width: 150px; height:95px;' src='/static/images/stimulus_img32.png'></img><p class='small'><strong>Option 2</strong></p></div></div></div><div style='position:relative;margin-block-start:0px;margin-block-end:0px;bottom: 160px;'><p style='margin-block-start:0px;margin-block-end:0px;'>Use the 'z' key to select the treatment on the left</p><p style='margin-block-start:0px;margin-block-end:0px;'>Use the 'm' key to select the treatment on the right</p></div>,90.0,,,html-keyboard-response,100,141114,0.0-5.0-2.31,OCS3O3mK,Self-control,Self-control,75,,,right,/static/images/stimulus_img32.png,55.0,5.0,40.0,False
101,,,,,,html-keyboard-response,101,141115,0.0-5.0-0.32,OCS3O3mK,Self-control,Self-control,75,True,,,,,,,
102,,<div style='position:fixed;top:47%;left:49%;text-align:center;font-size:60px;'>+</div>,,,,html-keyboard-response,102,142115,0.0-5.0-1.32,OCS3O3mK,Self-control,Self-control,75,,True,,,,,,
103,5786.89999999915,<div style='position:relative; min-width:800px; margin-bottom:360px;top:28.8px;'><div style='margin:auto 0;top:0px;text-align:left;'><p style='text-align:center;font-size: 36px;'>Domain: <strong>Self-control</strong></p><p style='text-align:center;font-size: 18px;'>Chances the treatment...</p><p><div style='display:inline-block;background-color:#ed713a;height:27px; width:40px;margin-right: 5px;'></div><b>Worsens</b> the deficit. The person becomes <b>unable</b> to control their thoughts and impulses.</p><p><div style='display:inline-block;background-color:#808080;height:27px; width:40px;margin-right: 5px;'></div>Has <b>no effect.</b> The person <b>still</b> has some trouble controlling their thoughts and impulses.</p><p><div style='display:inline-block;background-color:#4169e1;height:27px; width:40px;margin-right: 5px;'></div><b>Cures</b> the deficit. The person becomes <b>able</b> to control their thoughts and impulses.</p></div><div style='width:800px;margin-top:50px;margin: 0 auto;'><div style='float: left;margin-left:225px;'><img style='border: 3px solid #000000; width: 150px; height:95px;' src='/static/images/stimulus_img33.png'></img><p class='small'><strong>Option 1</strong></p></div><div style='float: right;margin-right:225px;'><div style=' width: 150px; height:95px; border: 3px solid #000000; background-color: grey;'><p style='text-align: center; margin-top:23%;font-size:14px;font-weight:bold;'>No treatment</p></div><p class='small'><strong>Option 2</strong></p></div></div></div><div style='position:relative;margin-block-start:0px;margin-block-end:0px;bottom: 160px;'><p style='margin-block-start:0px;margin-block-end:0px;'>Use the 'z' key to select the treatment on the left</p><p style='margin-block-start:0px;margin-block-end:0px;'>Use the 'm' key to select the treatment on the right</p></div>,77.0,,,html-keyboard-response,103,147904,0.0-5.0-2.32,OCS3O3mK,Self-control,Self-control,75,,,left,/static/images/stimulus_img33.png,40.0,55.0,5.0,False
104,,,,,,html-keyboard-response,104,147905,0.0-5.0-0.33,OCS3O3mK,Self-control,Self-control,75,True,,,,,,,
105,,<div style='position:fixed;top:47%;left:49%;text-align:center;font-size:60px;'>+</div>,,,,html-keyboard-response,105,148906,0.0-5.0-1.33,OCS3O3mK,Self-control,Self-control,75,,True,,,,,,
106,877.5949999999139,<div style='position:relative; min-width:800px; margin-bottom:360px;top:28.8px;'><div style='margin:auto 0;top:0px;text-align:left;'><p style='text-align:center;font-size: 36px;'>Domain: <strong>Self-control</strong></p><p style='text-align:center;font-size: 18px;'>Chances the treatment...</p><p><div style='display:inline-block;background-color:#ed713a;height:27px; width:40px;margin-right: 5px;'></div><b>Worsens</b> the deficit. The person becomes <b>unable</b> to control their thoughts and impulses.</p><p><div style='display:inline-block;background-color:#808080;height:27px; width:40px;margin-right: 5px;'></div>Has <b>no effect.</b> The person <b>still</b> has some trouble controlling their thoughts and impulses.</p><p><div style='display:inline-block;background-color:#4169e1;height:27px; width:40px;margin-right: 5px;'></div><b>Cures</b> the deficit. The person becomes <b>able</b> to control their thoughts and impulses.</p></div><div style='width:800px;margin-top:50px; margin:0 auto;'><div style='float: left;margin-left:225px;'><div style='border: 3px solid #000000;width: 150px; height:95px; background-color: grey;'><p style='text-align: center;margin-top:23%;font-size:14px;font-weight:bold;'>No Treatment</p></div><p class='small'><strong>Option 1</strong></p></div><div style='float: right;margin-right:225px;'><img style='border: 3px solid #000000; width: 150px; height:95px;' src='/static/images/stimulus_img34.png'></img><p class='small'><strong>Option 2</strong></p></div></div></div><div style='position:relative;margin-block-start:0px;margin-block-end:0px;bottom: 160px;'><p style='margin-block-start:0px;margin-block-end:0px;'>Use the 'z' key to select the treatment on the left</p><p style='margin-block-start:0px;margin-block-end:0px;'>Use the 'm' key to select the treatment on the right</p></div>,77.0,,,html-keyboard-response,106,149786,0.0-5.0-2.33,OCS3O3mK,Self-control,Self-control,75,,,right,/static/images/stimulus_img34.png,5.0,85.0,10.0,True
107,,,,,,html-keyboard-response,107,149787,0.0-5.0-0.34,OCS3O3mK,Self-control,Self-control,75,True,,,,,,,
108,,<div style='position:fixed;top:47%;left:49%;text-align:center;font-size:60px;'>+</div>,,,,html-keyboard-response,108,150788,0.0-5.0-1.34,OCS3O3mK,Self-control,Self-control,75,,True,,,,,,
109,629.5800000007148,<div style='position:relative; min-width:800px; margin-bottom:360px;top:28.8px;'><div style='margin:auto 0;top:0px;text-align:left;'><p style='text-align:center;font-size: 36px;'>Domain: <strong>Self-control</strong></p><p style='text-align:center;font-size: 18px;'>Chances the treatment...</p><p><div style='display:inline-block;background-color:#ed713a;height:27px; width:40px;margin-right: 5px;'></div><b>Worsens</b> the deficit. The person becomes <b>unable</b> to control their thoughts and impulses.</p><p><div style='display:inline-block;background-color:#808080;height:27px; width:40px;margin-right: 5px;'></div>Has <b>no effect.</b> The person <b>still</b> has some trouble controlling their thoughts and impulses.</p><p><div style='display:inline-block;background-color:#4169e1;height:27px; width:40px;margin-right: 5px;'></div><b>Cures</b> the deficit. The person becomes <b>able</b> to control their thoughts and impulses.</p></div><div style='width:800px;margin-top:50px;margin: 0 auto;'><div style='float: left;margin-left:225px;'><img style='border: 3px solid #000000; width: 150px; height:95px;' src='/static/images/stimulus_img35.png'></img><p class='small'><strong>Option 1</strong></p></div><div style='float: right;margin-right:225px;'><div style=' width: 150px; height:95px; border: 3px solid #000000; background-color: grey;'><p style='text-align: center; margin-top:23%;font-size:14px;font-weight:bold;'>No treatment</p></div><p class='small'><strong>Option 2</strong></p></div></div></div><div style='position:relative;margin-block-start:0px;margin-block-end:0px;bottom: 160px;'><p style='margin-block-start:0px;margin-block-end:0px;'>Use the 'z' key to select the treatment on the left</p><p style='margin-block-start:0px;margin-block-end:0px;'>Use the 'm' key to select the treatment on the right</p></div>,90.0,,,html-keyboard-response,109,151419,0.0-5.0-2.34,OCS3O3mK,Self-control,Self-control,75,,,left,/static/images/stimulus_img35.png,40.0,10.0,50.0,True
110,,,,,,html-keyboard-response,110,151420,0.0-5.0-0.35,OCS3O3mK,Self-control,Self-control,75,True,,,,,,,
111,,<div style='position:fixed;top:47%;left:49%;text-align:center;font-size:60px;'>+</div>,,,,html-keyboard-response,111,152422,0.0-5.0-1.35,OCS3O3mK,Self-control,Self-control,75,,True,,,,,,
112,623.2300000010582,<div style='position:relative; min-width:800px; margin-bottom:360px;top:28.8px;'><div style='margin:auto 0;top:0px;text-align:left;'><p style='text-align:center;font-size: 36px;'>Domain: <strong>Self-control</strong></p><p style='text-align:center;font-size: 18px;'>Chances the treatment...</p><p><div style='display:inline-block;background-color:#ed713a;height:27px; width:40px;margin-right: 5px;'></div><b>Worsens</b> the deficit. The person becomes <b>unable</b> to control their thoughts and impulses.</p><p><div style='display:inline-block;background-color:#808080;height:27px; width:40px;margin-right: 5px;'></div>Has <b>no effect.</b> The person <b>still</b> has some trouble controlling their thoughts and impulses.</p><p><div style='display:inline-block;background-color:#4169e1;height:27px; width:40px;margin-right: 5px;'></div><b>Cures</b> the deficit. The person becomes <b>able</b> to control their thoughts and impulses.</p></div><div style='width:800px;margin-top:50px; margin:0 auto;'><div style='float: left;margin-left:225px;'><div style='border: 3px solid #000000;width: 150px; height:95px; background-color: grey;'><p style='text-align: center;margin-top:23%;font-size:14px;font-weight:bold;'>No Treatment</p></div><p class='small'><strong>Option 1</strong></p></div><div style='float: right;margin-right:225px;'><img style='border: 3px solid #000000; width: 150px; height:95px;' src='/static/images/stimulus_img36.png'></img><p class='small'><strong>Option 2</strong></p></div></div></div><div style='position:relative;margin-block-start:0px;margin-block-end:0px;bottom: 160px;'><p style='margin-block-start:0px;margin-block-end:0px;'>Use the 'z' key to select the treatment on the left</p><p style='margin-block-start:0px;margin-block-end:0px;'>Use the 'm' key to select the treatment on the right</p></div>,90.0,,,html-keyboard-response,112,153048,0.0-5.0-2.35,OCS3O3mK,Self-control,Self-control,75,,,right,/static/images/stimulus_img36.png,20.0,5.0,75.0,False
113,,,,,,html-keyboard-response,113,153048,0.0-5.0-0.36,OCS3O3mK,Self-control,Self-control,75,True,,,,,,,
114,,<div style='position:fixed;top:47%;left:49%;text-align:center;font-size:60px;'>+</div>,,,,html-keyboard-response,114,154049,0.0-5.0-1.36,OCS3O3mK,Self-control,Self-control,75,,True,,,,,,
115,668.7349999992875,<div style='position:relative; min-width:800px; margin-bottom:360px;top:28.8px;'><div style='margin:auto 0;top:0px;text-align:left;'><p style='text-align:center;font-size: 36px;'>Domain: <strong>Self-control</strong></p><p style='text-align:center;font-size: 18px;'>Chances the treatment...</p><p><div style='display:inline-block;background-color:#ed713a;height:27px; width:40px;margin-right: 5px;'></div><b>Worsens</b> the deficit. The person becomes <b>unable</b> to control their thoughts and impulses.</p><p><div style='display:inline-block;background-color:#808080;height:27px; width:40px;margin-right: 5px;'></div>Has <b>no effect.</b> The person <b>still</b> has some trouble controlling their thoughts and impulses.</p><p><div style='display:inline-block;background-color:#4169e1;height:27px; width:40px;margin-right: 5px;'></div><b>Cures</b> the deficit. The person becomes <b>able</b> to control their thoughts and impulses.</p></div><div style='width:800px;margin-top:50px;margin: 0 auto;'><div style='float: left;margin-left:225px;'><img style='border: 3px solid #000000; width: 150px; height:95px;' src='/static/images/stimulus_img37.png'></img><p class='small'><strong>Option 1</strong></p></div><div style='float: right;margin-right:225px;'><div style=' width: 150px; height:95px; border: 3px solid #000000; background-color: grey;'><p style='text-align: center; margin-top:23%;font-size:14px;font-weight:bold;'>No treatment</p></div><p class='small'><strong>Option 2</strong></p></div></div></div><div style='position:relative;margin-block-start:0px;margin-block-end:0px;bottom: 160px;'><p style='margin-block-start:0px;margin-block-end:0px;'>Use the 'z' key to select the treatment on the left</p><p style='margin-block-start:0px;margin-block-end:0px;'>Use the 'm' key to select the treatment on the right</p></div>,77.0,,,html-keyboard-response,115,154720,0.0-5.0-2.36,OCS3O3mK,Self-control,Self-control,75,,,left,/static/images/stimulus_img37.png,25.0,55.0,20.0,False
116,,,,,,html-keyboard-response,116,154720,0.0-5.0-0.37,OCS3O3mK,Self-control,Self-control,75,True,,,,,,,
117,,<div style='position:fixed;top:47%;left:49%;text-align:center;font-size:60px;'>+</div>,,,,html-keyboard-response,117,155721,0.0-5.0-1.37,OCS3O3mK,Self-control,Self-control,75,,True,,,,,,
118,679.0550000005169,<div style='position:relative; min-width:800px; margin-bottom:360px;top:28.8px;'><div style='margin:auto 0;top:0px;text-align:left;'><p style='text-align:center;font-size: 36px;'>Domain: <strong>Self-control</strong></p><p style='text-align:center;font-size: 18px;'>Chances the treatment...</p><p><div style='display:inline-block;background-color:#ed713a;height:27px; width:40px;margin-right: 5px;'></div><b>Worsens</b> the deficit. The person becomes <b>unable</b> to control their thoughts and impulses.</p><p><div style='display:inline-block;background-color:#808080;height:27px; width:40px;margin-right: 5px;'></div>Has <b>no effect.</b> The person <b>still</b> has some trouble controlling their thoughts and impulses.</p><p><div style='display:inline-block;background-color:#4169e1;height:27px; width:40px;margin-right: 5px;'></div><b>Cures</b> the deficit. The person becomes <b>able</b> to control their thoughts and impulses.</p></div><div style='width:800px;margin-top:50px;margin: 0 auto;'><div style='float: left;margin-left:225px;'><img style='border: 3px solid #000000; width: 150px; height:95px;' src='/static/images/stimulus_img38.png'></img><p class='small'><strong>Option 1</strong></p></div><div style='float: right;margin-right:225px;'><div style=' width: 150px; height:95px; border: 3px solid #000000; background-color: grey;'><p style='text-align: center; margin-top:23%;font-size:14px;font-weight:bold;'>No treatment</p></div><p class='small'><strong>Option 2</strong></p></div></div></div><div style='position:relative;margin-block-start:0px;margin-block-end:0px;bottom: 160px;'><p style='margin-block-start:0px;margin-block-end:0px;'>Use the 'z' key to select the treatment on the left</p><p style='margin-block-start:0px;margin-block-end:0px;'>Use the 'm' key to select the treatment on the right</p></div>,77.0,,,html-keyboard-response,118,156402,0.0-5.0-2.37,OCS3O3mK,Self-control,Self-control,75,,,left,/static/images/stimulus_img38.png,35.0,25.0,40.0,False
119,,,,,,html-keyboard-response,119,156402,0.0-5.0-0.38,OCS3O3mK,Self-control,Self-control,75,True,,,,,,,
120,,<div style='position:fixed;top:47%;left:49%;text-align:center;font-size:60px;'>+</div>,,,,html-keyboard-response,120,157403,0.0-5.0-1.38,OCS3O3mK,Self-control,Self-control,75,,True,,,,,,
121,1152.579999999929,<div style='position:relative; min-width:800px; margin-bottom:360px;top:28.8px;'><div style='margin:auto 0;top:0px;text-align:left;'><p style='text-align:center;font-size: 36px;'>Domain: <strong>Self-control</strong></p><p style='text-align:center;font-size: 18px;'>Chances the treatment...</p><p><div style='display:inline-block;background-color:#ed713a;height:27px; width:40px;margin-right: 5px;'></div><b>Worsens</b> the deficit. The person becomes <b>unable</b> to control their thoughts and impulses.</p><p><div style='display:inline-block;background-color:#808080;height:27px; width:40px;margin-right: 5px;'></div>Has <b>no effect.</b> The person <b>still</b> has some trouble controlling their thoughts and impulses.</p><p><div style='display:inline-block;background-color:#4169e1;height:27px; width:40px;margin-right: 5px;'></div><b>Cures</b> the deficit. The person becomes <b>able</b> to control their thoughts and impulses.</p></div><div style='width:800px;margin-top:50px; margin:0 auto;'><div style='float: left;margin-left:225px;'><div style='border: 3px solid #000000;width: 150px; height:95px; background-color: grey;'><p style='text-align: center;margin-top:23%;font-size:14px;font-weight:bold;'>No Treatment</p></div><p class='small'><strong>Option 1</strong></p></div><div style='float: right;margin-right:225px;'><img style='border: 3px solid #000000; width: 150px; height:95px;' src='/static/images/stimulus_img39.png'></img><p class='small'><strong>Option 2</strong></p></div></div></div><div style='position:relative;margin-block-start:0px;margin-block-end:0px;bottom: 160px;'><p style='margin-block-start:0px;margin-block-end:0px;'>Use the 'z' key to select the treatment on the left</p><p style='margin-block-start:0px;margin-block-end:0px;'>Use the 'm' key to select the treatment on the right</p></div>,90.0,,,html-keyboard-response,121,158557,0.0-5.0-2.38,OCS3O3mK,Self-control,Self-control,75,,,right,/static/images/stimulus_img39.png,35.0,40.0,25.0,False
