,rt,stimulus,key_press,image indices,image paths,trial_type,trial_index,time_elapsed,internal_node_id,user_id,condition,condition_per_trial,total_trials,fixation_cross_trial,cognitive_domain_trial,treatment_display,stimulus_path,risk,gain,no_effect,experimental_treatment_selected
0,1749.1199999931268,"<p class='lead'> Cognitive Functions and Risk Assessment Task Prototype</p><p> Drexel University, Lab for Cogntive Neuroengineering<p>PI: Dr. John Megdalia</p>",32.0,"[1, 2, 3, 4, 5, 6, 7, 8, 9, 10, 11, 12, 13, 14, 15, 16, 17, 18, 19, 20, 21, 22, 23, 24, 25, 26, 27, 28, 29, 30, 31, 32, 33, 34, 35, 36, 37, 38, 39, 40, 41, 42, 43, 44, 45, 46, 47, 48, 49, 50, 51, 52, 53, 54, 55, 56, 57, 58, 59, 60, 61, 62, 63, 64, 65, 66, 67, 68, 69, 70, 71, 72, 73, 74, 75]","['/static/images/stimulus_img1.png', '/static/images/stimulus_img2.png', '/static/images/stimulus_img3.png', '/static/images/stimulus_img4.png', '/static/images/stimulus_img5.png', '/static/images/stimulus_img6.png', '/static/images/stimulus_img7.png', '/static/images/stimulus_img8.png', '/static/images/stimulus_img9.png', '/static/images/stimulus_img10.png', '/static/images/stimulus_img11.png', '/static/images/stimulus_img12.png', '/static/images/stimulus_img13.png', '/static/images/stimulus_img14.png', '/static/images/stimulus_img15.png', '/static/images/stimulus_img16.png', '/static/images/stimulus_img17.png', '/static/images/stimulus_img18.png', '/static/images/stimulus_img19.png', '/static/images/stimulus_img20.png', '/static/images/stimulus_img21.png', '/static/images/stimulus_img22.png', '/static/images/stimulus_img23.png', '/static/images/stimulus_img24.png', '/static/images/stimulus_img25.png', '/static/images/stimulus_img26.png', '/static/images/stimulus_img27.png', '/static/images/stimulus_img28.png', '/static/images/stimulus_img29.png', '/static/images/stimulus_img30.png', '/static/images/stimulus_img31.png', '/static/images/stimulus_img32.png', '/static/images/stimulus_img33.png', '/static/images/stimulus_img34.png', '/static/images/stimulus_img35.png', '/static/images/stimulus_img36.png', '/static/images/stimulus_img37.png', '/static/images/stimulus_img38.png', '/static/images/stimulus_img39.png', '/static/images/stimulus_img40.png', '/static/images/stimulus_img41.png', '/static/images/stimulus_img42.png', '/static/images/stimulus_img43.png', '/static/images/stimulus_img44.png', '/static/images/stimulus_img45.png', '/static/images/stimulus_img46.png', '/static/images/stimulus_img47.png', '/static/images/stimulus_img48.png', '/static/images/stimulus_img49.png', '/static/images/stimulus_img50.png', '/static/images/stimulus_img51.png', '/static/images/stimulus_img52.png', '/static/images/stimulus_img53.png', '/static/images/stimulus_img54.png', '/static/images/stimulus_img55.png', '/static/images/stimulus_img56.png', '/static/images/stimulus_img57.png', '/static/images/stimulus_img58.png', '/static/images/stimulus_img59.png', '/static/images/stimulus_img60.png', '/static/images/stimulus_img61.png', '/static/images/stimulus_img62.png', '/static/images/stimulus_img63.png', '/static/images/stimulus_img64.png', '/static/images/stimulus_img65.png', '/static/images/stimulus_img66.png', '/static/images/stimulus_img67.png', '/static/images/stimulus_img68.png', '/static/images/stimulus_img69.png', '/static/images/stimulus_img70.png', '/static/images/stimulus_img71.png', '/static/images/stimulus_img72.png', '/static/images/stimulus_img73.png', '/static/images/stimulus_img74.png', '/static/images/stimulus_img75.png']",html-keyboard-response,0,1753,0.0-0.0,oEFhKj3D,Self-control,Self-control,75,,,,,,,,
1,750.434999994468,"<p style='text-align:left;'>We are interested in how you think about the <font color='blue'><b>tradeoffs between risks and benefits</b></font> when treating cognitive deficits.</p><p style='text-align:left;'>We will ask you to consider a few scenarios. You will need to think about whether you would choose to use a technique on a patient or not.</p><p style='text-align:left;'>In the real word, different treatments are associated with different chances of risks and benefits.</p><p style='text-align:left;'>Your task is to indicate whether or not you would recommend one of the treatments based on the chances that it will improve or harm the stated function <i>all else being equal.</i></p><p>Press any key to continue.</p>",32.0,,,html-keyboard-response,1,2504,0.0-1.0,oEFhKj3D,Self-control,Self-control,75,,,,,,,,
2,2894.5999999996275,"<p style='text-align:left;'><b>Imagine that you are in the position of a physician</b> deciding whether or not to use an experimental treatment for a Self-control dysfunction. </p><p style='text-align:left;'>You will see several cases like this:</p><div style='width:800px;height:200px;margin:0 auto;'><div style='float: left;margin-left:200px;'><p style='font-size:14px;'>Self-control</p><img src='https://neuroethics-task.s3.amazonaws.com/test.png' style='width:150px;height:95px;border: 3px solid #000000;'></img><p class='small'><strong>Option 1</strong></p></div><div style='float:right;margin-right:200px;'><div style='width: 150px; height: 95px; border: 3px solid #000000; font-size:12px; background-color: grey;margin-top:44px;'><p style='text-align: center; margin-top:25%;'>No treatment</p></div><p class='small'><strong>Option 2</strong></p></div></div></div><p style='text-align:left;'>First, you should look at cognitive function shown above the colored rectangle (""Self-control"" in this case), then at the relative amounts of <b><font color='gray'>gray</font></b>, <b><font color='#4169e1'>blue</font></b>, and <font color='#ed713a'><b>orange</b></font> in the trial. The amount of these colors represent the chances that the treatment:</p><div style='margin:auto 0;text-align:left;'><p style='display:inline-block;min-width:45%;'><div style='display:inline-block;background-color:#ed713a;height:27px; width:40px;margin-right: 5px;'></div><b>Worsens</b> the deficit.</p><p style='display:inline-block;min-width:45%;'><div style='display:inline-block;background-color:#808080;height:27px; width:40px;margin-right: 5px;'></div>Has <b>no effect.</b></p><p style='display:inline-block;min-width:45%;'><div style='display:inline-block;background-color:#4169e1;height:27px; width:40px;margin-right: 5px;'></div><b>Cures</b> the deficit.</p></div><p style='text-align:left;'>You should click the <b>'z'</b> key to pick Option 1, and the <b>'m'</b> key to pick Option 2. Sometimes the treatment will be on the left, and sometimes it will be on the right.</p><p style='text-align:left;'>In any case, your task is always to choose between the two Options- to give the  treatment or not.</p>",32.0,,,html-keyboard-response,2,5400,0.0-2.0,oEFhKj3D,Self-control,Self-control,75,,,,,,,,
3,1021.6700000019046,"<p style='text-align:left;'>Here is the function that you will consider throughout the task. Please read the symptoms of dysfunction so that you understand the kind of problem a person would have.</p><table style='width:90%;margin:0 auto;margin-bottom:10px;'><tr style='border-bottom: 1px solid #ddd; text-align:center;background-image:linear-gradient(to right, #7474BF, #348AC7); color:white;'><th style='border-right: 1px solid #ddd;'>Function</th><th style='border-left: 1px solid #ddd;'>Symptoms of Dysfunction</th></tr><tr style='text-align: center; border-bottom: 1px solid #ddd;' bgcolor='#e6f2ff'><td style='border-right:1px solid #ddd;'>Self-control</td><td style='border-left:1px solid #ddd;'>The person has trouble controlling their thoughts and impulses</td></tr></table><p style='text-align:left;'>Remember that the amount of each color represents whether the treatment will worsen the deficit, have no effect, or cure the deficit. In the case of Self-control please make sure you understand what consequences the treatment will have:</p><div style='margin:0 auto;text-align:left;'><p style='display:inline-block;min-width:20%;'><div style='display:inline-block;background-color:#ed713a;height:27px; width:40px;margin-right: 5px;'></div><b>Worsens</b> the deficit. The person becomes <b>unable</b> to control their thoughts and impulses.</p><p style='display:inline-block;min-width:20%;'><div style='display:inline-block;background-color:#808080;height:27px; width:40px;margin-right: 5px;'></div>Has <b>no effect.</b> The person <b>still</b> has some trouble controlling their thoughts and impulses.</p><p style='display:inline-block;min-width:20%;'><div style='display:inline-block;background-color:#4169e1;height:27px; width:40px;margin-right: 5px;'></div><b>Cures</b> the deficit. The person becomes <b>able</b> to control their thoughts and impulses.</p></div><p style=text-align:left;>When you begin the task, you will first see a cross on the center of the screen. Next, you will see a reminder of what the colors represent before each trial for a few seconds. Then, you will see the treatment appear on the screen and you should make your choice. You will then proceed through the trials until the task ends.",32.0,,,html-keyboard-response,3,6424,0.0-3.0,oEFhKj3D,Self-control,Self-control,75,,,,,,,,
4,813.9499999961117,"<p>After this slide, <strong>the experimental trials will begin. Please do not close the tab or window until you have finished the task.</strong></p>",32.0,,,html-keyboard-response,4,7239,0.0-4.0,oEFhKj3D,Self-control,Self-control,75,,,,,,,,
5,,<div style='position:fixed;top:47%;left:49%;text-align:center;font-size:60px;'>+</div>,,,,html-keyboard-response,5,8240,0.0-5.0-0.0,oEFhKj3D,Self-control,Self-control,75,True,,,,,,,
6,,<div style='position:relative;min-width: 800px;margin:auto 0;text-align: left;margin-bottom:360px;'><p style='font-size:36px; text-align:center;'>Domain: <strong>Self-control</strong></p><p style='text-align:center;font-size:18px;'>Chances the treatment...</p><p><div style='display:inline-block;background-color:#ed713a;height:27px; width:40px;margin-right: 5px;'></div><b>Worsens</b> the deficit. The person becomes <b>unable</b> to control their thoughts and impulses.</p><p><div style='display:inline-block;background-color:#808080;height:27px; width:40px;margin-right: 5px;'></div>Has <b>no effect.</b> The person <b>still</b> has some trouble controlling their thoughts and impulses.</p><p><div style='display:inline-block;background-color:#4169e1;height:27px; width:40px;margin-right: 5px;'></div><b>Cures</b> the deficit. The person becomes <b>able</b> to control their thoughts and impulses.</p></div><div style='position:fixed;top:47%;left:49%;text-align:center;font-size:60px;'>+</div>,,,,html-keyboard-response,6,10742,0.0-5.0-1.0,oEFhKj3D,Self-control,Self-control,75,,True,,,,,,
7,1399.4050000037532,<div style='position:relative; min-width:800px; margin-bottom:360px;top:28.8px;'><div style='margin:auto 0;top:0px;text-align:left;'><p style='text-align:center;font-size: 36px;'>Domain: <strong>Self-control</strong></p><p style='text-align:center;font-size: 18px;'>Chances the treatment...</p><p><div style='display:inline-block;background-color:#ed713a;height:27px; width:40px;margin-right: 5px;'></div><b>Worsens</b> the deficit. The person becomes <b>unable</b> to control their thoughts and impulses.</p><p><div style='display:inline-block;background-color:#808080;height:27px; width:40px;margin-right: 5px;'></div>Has <b>no effect.</b> The person <b>still</b> has some trouble controlling their thoughts and impulses.</p><p><div style='display:inline-block;background-color:#4169e1;height:27px; width:40px;margin-right: 5px;'></div><b>Cures</b> the deficit. The person becomes <b>able</b> to control their thoughts and impulses.</p></div><div style='width:800px;margin-top:50px;margin: 0 auto;'><div style='float: left;margin-left:225px;'><img style='border: 3px solid #000000; width: 150px; height:95px;' src='/static/images/stimulus_img1.png'></img><p class='small'><strong>Option 1</strong></p></div><div style='float: right;margin-right:225px;'><div style=' width: 150px; height:95px; border: 3px solid #000000; background-color: grey;'><p style='text-align: center; margin-top:23%;font-size:14px;font-weight:bold;'>No treatment</p></div><p class='small'><strong>Option 2</strong></p></div></div></div><div style='position:relative;margin-block-start:0px;margin-block-end:0px;bottom: 160px;'><p style='margin-block-start:0px;margin-block-end:0px;'>Use the 'z' key to select the treatment on the left</p><p style='margin-block-start:0px;margin-block-end:0px;'>Use the 'm' key to select the treatment on the right</p></div>,77.0,,,html-keyboard-response,7,12144,0.0-5.0-2.0,oEFhKj3D,Self-control,Self-control,75,,,left,/static/images/stimulus_img1.png,60.0,25.0,15.0,False
8,,,,,,html-keyboard-response,8,12145,0.0-5.0-0.1,oEFhKj3D,Self-control,Self-control,75,True,,,,,,,
9,,<div style='position:fixed;top:47%;left:49%;text-align:center;font-size:60px;'>+</div>,,,,html-keyboard-response,9,13146,0.0-5.0-1.1,oEFhKj3D,Self-control,Self-control,75,,True,,,,,,
10,1140.4550000006566,<div style='position:relative; min-width:800px; margin-bottom:360px;top:28.8px;'><div style='margin:auto 0;top:0px;text-align:left;'><p style='text-align:center;font-size: 36px;'>Domain: <strong>Self-control</strong></p><p style='text-align:center;font-size: 18px;'>Chances the treatment...</p><p><div style='display:inline-block;background-color:#ed713a;height:27px; width:40px;margin-right: 5px;'></div><b>Worsens</b> the deficit. The person becomes <b>unable</b> to control their thoughts and impulses.</p><p><div style='display:inline-block;background-color:#808080;height:27px; width:40px;margin-right: 5px;'></div>Has <b>no effect.</b> The person <b>still</b> has some trouble controlling their thoughts and impulses.</p><p><div style='display:inline-block;background-color:#4169e1;height:27px; width:40px;margin-right: 5px;'></div><b>Cures</b> the deficit. The person becomes <b>able</b> to control their thoughts and impulses.</p></div><div style='width:800px;margin-top:50px;margin: 0 auto;'><div style='float: left;margin-left:225px;'><img style='border: 3px solid #000000; width: 150px; height:95px;' src='/static/images/stimulus_img2.png'></img><p class='small'><strong>Option 1</strong></p></div><div style='float: right;margin-right:225px;'><div style=' width: 150px; height:95px; border: 3px solid #000000; background-color: grey;'><p style='text-align: center; margin-top:23%;font-size:14px;font-weight:bold;'>No treatment</p></div><p class='small'><strong>Option 2</strong></p></div></div></div><div style='position:relative;margin-block-start:0px;margin-block-end:0px;bottom: 160px;'><p style='margin-block-start:0px;margin-block-end:0px;'>Use the 'z' key to select the treatment on the left</p><p style='margin-block-start:0px;margin-block-end:0px;'>Use the 'm' key to select the treatment on the right</p></div>,77.0,,,html-keyboard-response,10,14288,0.0-5.0-2.1,oEFhKj3D,Self-control,Self-control,75,,,left,/static/images/stimulus_img2.png,30.0,60.0,10.0,False
11,,,,,,html-keyboard-response,11,14289,0.0-5.0-0.2,oEFhKj3D,Self-control,Self-control,75,True,,,,,,,
12,,<div style='position:fixed;top:47%;left:49%;text-align:center;font-size:60px;'>+</div>,,,,html-keyboard-response,12,15291,0.0-5.0-1.2,oEFhKj3D,Self-control,Self-control,75,,True,,,,,,
13,235.6699999945704,<div style='position:relative; min-width:800px; margin-bottom:360px;top:28.8px;'><div style='margin:auto 0;top:0px;text-align:left;'><p style='text-align:center;font-size: 36px;'>Domain: <strong>Self-control</strong></p><p style='text-align:center;font-size: 18px;'>Chances the treatment...</p><p><div style='display:inline-block;background-color:#ed713a;height:27px; width:40px;margin-right: 5px;'></div><b>Worsens</b> the deficit. The person becomes <b>unable</b> to control their thoughts and impulses.</p><p><div style='display:inline-block;background-color:#808080;height:27px; width:40px;margin-right: 5px;'></div>Has <b>no effect.</b> The person <b>still</b> has some trouble controlling their thoughts and impulses.</p><p><div style='display:inline-block;background-color:#4169e1;height:27px; width:40px;margin-right: 5px;'></div><b>Cures</b> the deficit. The person becomes <b>able</b> to control their thoughts and impulses.</p></div><div style='width:800px;margin-top:50px;margin: 0 auto;'><div style='float: left;margin-left:225px;'><img style='border: 3px solid #000000; width: 150px; height:95px;' src='/static/images/stimulus_img3.png'></img><p class='small'><strong>Option 1</strong></p></div><div style='float: right;margin-right:225px;'><div style=' width: 150px; height:95px; border: 3px solid #000000; background-color: grey;'><p style='text-align: center; margin-top:23%;font-size:14px;font-weight:bold;'>No treatment</p></div><p class='small'><strong>Option 2</strong></p></div></div></div><div style='position:relative;margin-block-start:0px;margin-block-end:0px;bottom: 160px;'><p style='margin-block-start:0px;margin-block-end:0px;'>Use the 'z' key to select the treatment on the left</p><p style='margin-block-start:0px;margin-block-end:0px;'>Use the 'm' key to select the treatment on the right</p></div>,90.0,,,html-keyboard-response,13,15528,0.0-5.0-2.2,oEFhKj3D,Self-control,Self-control,75,,,left,/static/images/stimulus_img3.png,15.0,35.0,50.0,True
14,,,,,,html-keyboard-response,14,15529,0.0-5.0-0.3,oEFhKj3D,Self-control,Self-control,75,True,,,,,,,
15,,<div style='position:fixed;top:47%;left:49%;text-align:center;font-size:60px;'>+</div>,,,,html-keyboard-response,15,16542,0.0-5.0-1.3,oEFhKj3D,Self-control,Self-control,75,,True,,,,,,
16,451.6250000015134,<div style='position:relative; min-width:800px; margin-bottom:360px;top:28.8px;'><div style='margin:auto 0;top:0px;text-align:left;'><p style='text-align:center;font-size: 36px;'>Domain: <strong>Self-control</strong></p><p style='text-align:center;font-size: 18px;'>Chances the treatment...</p><p><div style='display:inline-block;background-color:#ed713a;height:27px; width:40px;margin-right: 5px;'></div><b>Worsens</b> the deficit. The person becomes <b>unable</b> to control their thoughts and impulses.</p><p><div style='display:inline-block;background-color:#808080;height:27px; width:40px;margin-right: 5px;'></div>Has <b>no effect.</b> The person <b>still</b> has some trouble controlling their thoughts and impulses.</p><p><div style='display:inline-block;background-color:#4169e1;height:27px; width:40px;margin-right: 5px;'></div><b>Cures</b> the deficit. The person becomes <b>able</b> to control their thoughts and impulses.</p></div><div style='width:800px;margin-top:50px; margin:0 auto;'><div style='float: left;margin-left:225px;'><div style='border: 3px solid #000000;width: 150px; height:95px; background-color: grey;'><p style='text-align: center;margin-top:23%;font-size:14px;font-weight:bold;'>No Treatment</p></div><p class='small'><strong>Option 1</strong></p></div><div style='float: right;margin-right:225px;'><img style='border: 3px solid #000000; width: 150px; height:95px;' src='/static/images/stimulus_img4.png'></img><p class='small'><strong>Option 2</strong></p></div></div></div><div style='position:relative;margin-block-start:0px;margin-block-end:0px;bottom: 160px;'><p style='margin-block-start:0px;margin-block-end:0px;'>Use the 'z' key to select the treatment on the left</p><p style='margin-block-start:0px;margin-block-end:0px;'>Use the 'm' key to select the treatment on the right</p></div>,90.0,,,html-keyboard-response,16,16995,0.0-5.0-2.3,oEFhKj3D,Self-control,Self-control,75,,,right,/static/images/stimulus_img4.png,90.0,5.0,5.0,False
17,,,,,,html-keyboard-response,17,16996,0.0-5.0-0.4,oEFhKj3D,Self-control,Self-control,75,True,,,,,,,
18,,<div style='position:fixed;top:47%;left:49%;text-align:center;font-size:60px;'>+</div>,,,,html-keyboard-response,18,17997,0.0-5.0-1.4,oEFhKj3D,Self-control,Self-control,75,,True,,,,,,
19,66.145000004326,<div style='position:relative; min-width:800px; margin-bottom:360px;top:28.8px;'><div style='margin:auto 0;top:0px;text-align:left;'><p style='text-align:center;font-size: 36px;'>Domain: <strong>Self-control</strong></p><p style='text-align:center;font-size: 18px;'>Chances the treatment...</p><p><div style='display:inline-block;background-color:#ed713a;height:27px; width:40px;margin-right: 5px;'></div><b>Worsens</b> the deficit. The person becomes <b>unable</b> to control their thoughts and impulses.</p><p><div style='display:inline-block;background-color:#808080;height:27px; width:40px;margin-right: 5px;'></div>Has <b>no effect.</b> The person <b>still</b> has some trouble controlling their thoughts and impulses.</p><p><div style='display:inline-block;background-color:#4169e1;height:27px; width:40px;margin-right: 5px;'></div><b>Cures</b> the deficit. The person becomes <b>able</b> to control their thoughts and impulses.</p></div><div style='width:800px;margin-top:50px; margin:0 auto;'><div style='float: left;margin-left:225px;'><div style='border: 3px solid #000000;width: 150px; height:95px; background-color: grey;'><p style='text-align: center;margin-top:23%;font-size:14px;font-weight:bold;'>No Treatment</p></div><p class='small'><strong>Option 1</strong></p></div><div style='float: right;margin-right:225px;'><img style='border: 3px solid #000000; width: 150px; height:95px;' src='/static/images/stimulus_img5.png'></img><p class='small'><strong>Option 2</strong></p></div></div></div><div style='position:relative;margin-block-start:0px;margin-block-end:0px;bottom: 160px;'><p style='margin-block-start:0px;margin-block-end:0px;'>Use the 'z' key to select the treatment on the left</p><p style='margin-block-start:0px;margin-block-end:0px;'>Use the 'm' key to select the treatment on the right</p></div>,90.0,,,html-keyboard-response,19,18064,0.0-5.0-2.4,oEFhKj3D,Self-control,Self-control,75,,,right,/static/images/stimulus_img5.png,65.0,25.0,10.0,False
20,,,,,,html-keyboard-response,20,18065,0.0-5.0-0.5,oEFhKj3D,Self-control,Self-control,75,True,,,,,,,
21,,<div style='position:fixed;top:47%;left:49%;text-align:center;font-size:60px;'>+</div>,,,,html-keyboard-response,21,19066,0.0-5.0-1.5,oEFhKj3D,Self-control,Self-control,75,,True,,,,,,
22,380.0599999958649,<div style='position:relative; min-width:800px; margin-bottom:360px;top:28.8px;'><div style='margin:auto 0;top:0px;text-align:left;'><p style='text-align:center;font-size: 36px;'>Domain: <strong>Self-control</strong></p><p style='text-align:center;font-size: 18px;'>Chances the treatment...</p><p><div style='display:inline-block;background-color:#ed713a;height:27px; width:40px;margin-right: 5px;'></div><b>Worsens</b> the deficit. The person becomes <b>unable</b> to control their thoughts and impulses.</p><p><div style='display:inline-block;background-color:#808080;height:27px; width:40px;margin-right: 5px;'></div>Has <b>no effect.</b> The person <b>still</b> has some trouble controlling their thoughts and impulses.</p><p><div style='display:inline-block;background-color:#4169e1;height:27px; width:40px;margin-right: 5px;'></div><b>Cures</b> the deficit. The person becomes <b>able</b> to control their thoughts and impulses.</p></div><div style='width:800px;margin-top:50px; margin:0 auto;'><div style='float: left;margin-left:225px;'><div style='border: 3px solid #000000;width: 150px; height:95px; background-color: grey;'><p style='text-align: center;margin-top:23%;font-size:14px;font-weight:bold;'>No Treatment</p></div><p class='small'><strong>Option 1</strong></p></div><div style='float: right;margin-right:225px;'><img style='border: 3px solid #000000; width: 150px; height:95px;' src='/static/images/stimulus_img6.png'></img><p class='small'><strong>Option 2</strong></p></div></div></div><div style='position:relative;margin-block-start:0px;margin-block-end:0px;bottom: 160px;'><p style='margin-block-start:0px;margin-block-end:0px;'>Use the 'z' key to select the treatment on the left</p><p style='margin-block-start:0px;margin-block-end:0px;'>Use the 'm' key to select the treatment on the right</p></div>,77.0,,,html-keyboard-response,22,19448,0.0-5.0-2.5,oEFhKj3D,Self-control,Self-control,75,,,right,/static/images/stimulus_img6.png,55.0,35.0,10.0,True
23,,,,,,html-keyboard-response,23,19449,0.0-5.0-0.6,oEFhKj3D,Self-control,Self-control,75,True,,,,,,,
24,,<div style='position:fixed;top:47%;left:49%;text-align:center;font-size:60px;'>+</div>,,,,html-keyboard-response,24,20450,0.0-5.0-1.6,oEFhKj3D,Self-control,Self-control,75,,True,,,,,,
25,156.68000000005122,<div style='position:relative; min-width:800px; margin-bottom:360px;top:28.8px;'><div style='margin:auto 0;top:0px;text-align:left;'><p style='text-align:center;font-size: 36px;'>Domain: <strong>Self-control</strong></p><p style='text-align:center;font-size: 18px;'>Chances the treatment...</p><p><div style='display:inline-block;background-color:#ed713a;height:27px; width:40px;margin-right: 5px;'></div><b>Worsens</b> the deficit. The person becomes <b>unable</b> to control their thoughts and impulses.</p><p><div style='display:inline-block;background-color:#808080;height:27px; width:40px;margin-right: 5px;'></div>Has <b>no effect.</b> The person <b>still</b> has some trouble controlling their thoughts and impulses.</p><p><div style='display:inline-block;background-color:#4169e1;height:27px; width:40px;margin-right: 5px;'></div><b>Cures</b> the deficit. The person becomes <b>able</b> to control their thoughts and impulses.</p></div><div style='width:800px;margin-top:50px;margin: 0 auto;'><div style='float: left;margin-left:225px;'><img style='border: 3px solid #000000; width: 150px; height:95px;' src='/static/images/stimulus_img7.png'></img><p class='small'><strong>Option 1</strong></p></div><div style='float: right;margin-right:225px;'><div style=' width: 150px; height:95px; border: 3px solid #000000; background-color: grey;'><p style='text-align: center; margin-top:23%;font-size:14px;font-weight:bold;'>No treatment</p></div><p class='small'><strong>Option 2</strong></p></div></div></div><div style='position:relative;margin-block-start:0px;margin-block-end:0px;bottom: 160px;'><p style='margin-block-start:0px;margin-block-end:0px;'>Use the 'z' key to select the treatment on the left</p><p style='margin-block-start:0px;margin-block-end:0px;'>Use the 'm' key to select the treatment on the right</p></div>,77.0,,,html-keyboard-response,25,20608,0.0-5.0-2.6,oEFhKj3D,Self-control,Self-control,75,,,left,/static/images/stimulus_img7.png,35.0,25.0,40.0,False
26,,,,,,html-keyboard-response,26,20609,0.0-5.0-0.7,oEFhKj3D,Self-control,Self-control,75,True,,,,,,,
27,,<div style='position:fixed;top:47%;left:49%;text-align:center;font-size:60px;'>+</div>,,,,html-keyboard-response,27,21609,0.0-5.0-1.7,oEFhKj3D,Self-control,Self-control,75,,True,,,,,,
28,413.12999998626765,<div style='position:relative; min-width:800px; margin-bottom:360px;top:28.8px;'><div style='margin:auto 0;top:0px;text-align:left;'><p style='text-align:center;font-size: 36px;'>Domain: <strong>Self-control</strong></p><p style='text-align:center;font-size: 18px;'>Chances the treatment...</p><p><div style='display:inline-block;background-color:#ed713a;height:27px; width:40px;margin-right: 5px;'></div><b>Worsens</b> the deficit. The person becomes <b>unable</b> to control their thoughts and impulses.</p><p><div style='display:inline-block;background-color:#808080;height:27px; width:40px;margin-right: 5px;'></div>Has <b>no effect.</b> The person <b>still</b> has some trouble controlling their thoughts and impulses.</p><p><div style='display:inline-block;background-color:#4169e1;height:27px; width:40px;margin-right: 5px;'></div><b>Cures</b> the deficit. The person becomes <b>able</b> to control their thoughts and impulses.</p></div><div style='width:800px;margin-top:50px; margin:0 auto;'><div style='float: left;margin-left:225px;'><div style='border: 3px solid #000000;width: 150px; height:95px; background-color: grey;'><p style='text-align: center;margin-top:23%;font-size:14px;font-weight:bold;'>No Treatment</p></div><p class='small'><strong>Option 1</strong></p></div><div style='float: right;margin-right:225px;'><img style='border: 3px solid #000000; width: 150px; height:95px;' src='/static/images/stimulus_img8.png'></img><p class='small'><strong>Option 2</strong></p></div></div></div><div style='position:relative;margin-block-start:0px;margin-block-end:0px;bottom: 160px;'><p style='margin-block-start:0px;margin-block-end:0px;'>Use the 'z' key to select the treatment on the left</p><p style='margin-block-start:0px;margin-block-end:0px;'>Use the 'm' key to select the treatment on the right</p></div>,77.0,,,html-keyboard-response,28,22024,0.0-5.0-2.7,oEFhKj3D,Self-control,Self-control,75,,,right,/static/images/stimulus_img8.png,20.0,65.0,15.0,True
29,,,,,,html-keyboard-response,29,22024,0.0-5.0-0.8,oEFhKj3D,Self-control,Self-control,75,True,,,,,,,
30,,<div style='position:fixed;top:47%;left:49%;text-align:center;font-size:60px;'>+</div>,,,,html-keyboard-response,30,23025,0.0-5.0-1.8,oEFhKj3D,Self-control,Self-control,75,,True,,,,,,
31,749.3750000139698,<div style='position:relative; min-width:800px; margin-bottom:360px;top:28.8px;'><div style='margin:auto 0;top:0px;text-align:left;'><p style='text-align:center;font-size: 36px;'>Domain: <strong>Self-control</strong></p><p style='text-align:center;font-size: 18px;'>Chances the treatment...</p><p><div style='display:inline-block;background-color:#ed713a;height:27px; width:40px;margin-right: 5px;'></div><b>Worsens</b> the deficit. The person becomes <b>unable</b> to control their thoughts and impulses.</p><p><div style='display:inline-block;background-color:#808080;height:27px; width:40px;margin-right: 5px;'></div>Has <b>no effect.</b> The person <b>still</b> has some trouble controlling their thoughts and impulses.</p><p><div style='display:inline-block;background-color:#4169e1;height:27px; width:40px;margin-right: 5px;'></div><b>Cures</b> the deficit. The person becomes <b>able</b> to control their thoughts and impulses.</p></div><div style='width:800px;margin-top:50px; margin:0 auto;'><div style='float: left;margin-left:225px;'><div style='border: 3px solid #000000;width: 150px; height:95px; background-color: grey;'><p style='text-align: center;margin-top:23%;font-size:14px;font-weight:bold;'>No Treatment</p></div><p class='small'><strong>Option 1</strong></p></div><div style='float: right;margin-right:225px;'><img style='border: 3px solid #000000; width: 150px; height:95px;' src='/static/images/stimulus_img9.png'></img><p class='small'><strong>Option 2</strong></p></div></div></div><div style='position:relative;margin-block-start:0px;margin-block-end:0px;bottom: 160px;'><p style='margin-block-start:0px;margin-block-end:0px;'>Use the 'z' key to select the treatment on the left</p><p style='margin-block-start:0px;margin-block-end:0px;'>Use the 'm' key to select the treatment on the right</p></div>,77.0,,,html-keyboard-response,31,23776,0.0-5.0-2.8,oEFhKj3D,Self-control,Self-control,75,,,right,/static/images/stimulus_img9.png,15.0,35.0,50.0,True
32,,,,,,html-keyboard-response,32,23777,0.0-5.0-0.9,oEFhKj3D,Self-control,Self-control,75,True,,,,,,,
33,,<div style='position:fixed;top:47%;left:49%;text-align:center;font-size:60px;'>+</div>,,,,html-keyboard-response,33,24779,0.0-5.0-1.9,oEFhKj3D,Self-control,Self-control,75,,True,,,,,,
34,394035.4049999878,<div style='position:relative; min-width:800px; margin-bottom:360px;top:28.8px;'><div style='margin:auto 0;top:0px;text-align:left;'><p style='text-align:center;font-size: 36px;'>Domain: <strong>Self-control</strong></p><p style='text-align:center;font-size: 18px;'>Chances the treatment...</p><p><div style='display:inline-block;background-color:#ed713a;height:27px; width:40px;margin-right: 5px;'></div><b>Worsens</b> the deficit. The person becomes <b>unable</b> to control their thoughts and impulses.</p><p><div style='display:inline-block;background-color:#808080;height:27px; width:40px;margin-right: 5px;'></div>Has <b>no effect.</b> The person <b>still</b> has some trouble controlling their thoughts and impulses.</p><p><div style='display:inline-block;background-color:#4169e1;height:27px; width:40px;margin-right: 5px;'></div><b>Cures</b> the deficit. The person becomes <b>able</b> to control their thoughts and impulses.</p></div><div style='width:800px;margin-top:50px; margin:0 auto;'><div style='float: left;margin-left:225px;'><div style='border: 3px solid #000000;width: 150px; height:95px; background-color: grey;'><p style='text-align: center;margin-top:23%;font-size:14px;font-weight:bold;'>No Treatment</p></div><p class='small'><strong>Option 1</strong></p></div><div style='float: right;margin-right:225px;'><img style='border: 3px solid #000000; width: 150px; height:95px;' src='/static/images/stimulus_img10.png'></img><p class='small'><strong>Option 2</strong></p></div></div></div><div style='position:relative;margin-block-start:0px;margin-block-end:0px;bottom: 160px;'><p style='margin-block-start:0px;margin-block-end:0px;'>Use the 'z' key to select the treatment on the left</p><p style='margin-block-start:0px;margin-block-end:0px;'>Use the 'm' key to select the treatment on the right</p></div>,77.0,,,html-keyboard-response,34,418817,0.0-5.0-2.9,oEFhKj3D,Self-control,Self-control,75,,,right,/static/images/stimulus_img10.png,20.0,45.0,35.0,True
35,,,,,,html-keyboard-response,35,418817,0.0-5.0-0.10,oEFhKj3D,Self-control,Self-control,75,True,,,,,,,
36,,<div style='position:fixed;top:47%;left:49%;text-align:center;font-size:60px;'>+</div>,,,,html-keyboard-response,36,419818,0.0-5.0-1.10,oEFhKj3D,Self-control,Self-control,75,,True,,,,,,
37,3.8300000014714897,<div style='position:relative; min-width:800px; margin-bottom:360px;top:28.8px;'><div style='margin:auto 0;top:0px;text-align:left;'><p style='text-align:center;font-size: 36px;'>Domain: <strong>Self-control</strong></p><p style='text-align:center;font-size: 18px;'>Chances the treatment...</p><p><div style='display:inline-block;background-color:#ed713a;height:27px; width:40px;margin-right: 5px;'></div><b>Worsens</b> the deficit. The person becomes <b>unable</b> to control their thoughts and impulses.</p><p><div style='display:inline-block;background-color:#808080;height:27px; width:40px;margin-right: 5px;'></div>Has <b>no effect.</b> The person <b>still</b> has some trouble controlling their thoughts and impulses.</p><p><div style='display:inline-block;background-color:#4169e1;height:27px; width:40px;margin-right: 5px;'></div><b>Cures</b> the deficit. The person becomes <b>able</b> to control their thoughts and impulses.</p></div><div style='width:800px;margin-top:50px; margin:0 auto;'><div style='float: left;margin-left:225px;'><div style='border: 3px solid #000000;width: 150px; height:95px; background-color: grey;'><p style='text-align: center;margin-top:23%;font-size:14px;font-weight:bold;'>No Treatment</p></div><p class='small'><strong>Option 1</strong></p></div><div style='float: right;margin-right:225px;'><img style='border: 3px solid #000000; width: 150px; height:95px;' src='/static/images/stimulus_img11.png'></img><p class='small'><strong>Option 2</strong></p></div></div></div><div style='position:relative;margin-block-start:0px;margin-block-end:0px;bottom: 160px;'><p style='margin-block-start:0px;margin-block-end:0px;'>Use the 'z' key to select the treatment on the left</p><p style='margin-block-start:0px;margin-block-end:0px;'>Use the 'm' key to select the treatment on the right</p></div>,90.0,,,html-keyboard-response,37,419824,0.0-5.0-2.10,oEFhKj3D,Self-control,Self-control,75,,,right,/static/images/stimulus_img11.png,65.0,25.0,10.0,False
38,,,,,,html-keyboard-response,38,419825,0.0-5.0-0.11,oEFhKj3D,Self-control,Self-control,75,True,,,,,,,
39,,<div style='position:fixed;top:47%;left:49%;text-align:center;font-size:60px;'>+</div>,,,,html-keyboard-response,39,420825,0.0-5.0-1.11,oEFhKj3D,Self-control,Self-control,75,,True,,,,,,
40,293.25999999127816,<div style='position:relative; min-width:800px; margin-bottom:360px;top:28.8px;'><div style='margin:auto 0;top:0px;text-align:left;'><p style='text-align:center;font-size: 36px;'>Domain: <strong>Self-control</strong></p><p style='text-align:center;font-size: 18px;'>Chances the treatment...</p><p><div style='display:inline-block;background-color:#ed713a;height:27px; width:40px;margin-right: 5px;'></div><b>Worsens</b> the deficit. The person becomes <b>unable</b> to control their thoughts and impulses.</p><p><div style='display:inline-block;background-color:#808080;height:27px; width:40px;margin-right: 5px;'></div>Has <b>no effect.</b> The person <b>still</b> has some trouble controlling their thoughts and impulses.</p><p><div style='display:inline-block;background-color:#4169e1;height:27px; width:40px;margin-right: 5px;'></div><b>Cures</b> the deficit. The person becomes <b>able</b> to control their thoughts and impulses.</p></div><div style='width:800px;margin-top:50px; margin:0 auto;'><div style='float: left;margin-left:225px;'><div style='border: 3px solid #000000;width: 150px; height:95px; background-color: grey;'><p style='text-align: center;margin-top:23%;font-size:14px;font-weight:bold;'>No Treatment</p></div><p class='small'><strong>Option 1</strong></p></div><div style='float: right;margin-right:225px;'><img style='border: 3px solid #000000; width: 150px; height:95px;' src='/static/images/stimulus_img12.png'></img><p class='small'><strong>Option 2</strong></p></div></div></div><div style='position:relative;margin-block-start:0px;margin-block-end:0px;bottom: 160px;'><p style='margin-block-start:0px;margin-block-end:0px;'>Use the 'z' key to select the treatment on the left</p><p style='margin-block-start:0px;margin-block-end:0px;'>Use the 'm' key to select the treatment on the right</p></div>,90.0,,,html-keyboard-response,40,421120,0.0-5.0-2.11,oEFhKj3D,Self-control,Self-control,75,,,right,/static/images/stimulus_img12.png,60.0,25.0,15.0,False
41,,,,,,html-keyboard-response,41,421121,0.0-5.0-0.12,oEFhKj3D,Self-control,Self-control,75,True,,,,,,,
42,,<div style='position:fixed;top:47%;left:49%;text-align:center;font-size:60px;'>+</div>,,,,html-keyboard-response,42,422122,0.0-5.0-1.12,oEFhKj3D,Self-control,Self-control,75,,True,,,,,,
43,260.5299999995623,<div style='position:relative; min-width:800px; margin-bottom:360px;top:28.8px;'><div style='margin:auto 0;top:0px;text-align:left;'><p style='text-align:center;font-size: 36px;'>Domain: <strong>Self-control</strong></p><p style='text-align:center;font-size: 18px;'>Chances the treatment...</p><p><div style='display:inline-block;background-color:#ed713a;height:27px; width:40px;margin-right: 5px;'></div><b>Worsens</b> the deficit. The person becomes <b>unable</b> to control their thoughts and impulses.</p><p><div style='display:inline-block;background-color:#808080;height:27px; width:40px;margin-right: 5px;'></div>Has <b>no effect.</b> The person <b>still</b> has some trouble controlling their thoughts and impulses.</p><p><div style='display:inline-block;background-color:#4169e1;height:27px; width:40px;margin-right: 5px;'></div><b>Cures</b> the deficit. The person becomes <b>able</b> to control their thoughts and impulses.</p></div><div style='width:800px;margin-top:50px;margin: 0 auto;'><div style='float: left;margin-left:225px;'><img style='border: 3px solid #000000; width: 150px; height:95px;' src='/static/images/stimulus_img13.png'></img><p class='small'><strong>Option 1</strong></p></div><div style='float: right;margin-right:225px;'><div style=' width: 150px; height:95px; border: 3px solid #000000; background-color: grey;'><p style='text-align: center; margin-top:23%;font-size:14px;font-weight:bold;'>No treatment</p></div><p class='small'><strong>Option 2</strong></p></div></div></div><div style='position:relative;margin-block-start:0px;margin-block-end:0px;bottom: 160px;'><p style='margin-block-start:0px;margin-block-end:0px;'>Use the 'z' key to select the treatment on the left</p><p style='margin-block-start:0px;margin-block-end:0px;'>Use the 'm' key to select the treatment on the right</p></div>,77.0,,,html-keyboard-response,43,422384,0.0-5.0-2.12,oEFhKj3D,Self-control,Self-control,75,,,left,/static/images/stimulus_img13.png,65.0,10.0,25.0,False
44,,,,,,html-keyboard-response,44,422385,0.0-5.0-0.13,oEFhKj3D,Self-control,Self-control,75,True,,,,,,,
45,,<div style='position:fixed;top:47%;left:49%;text-align:center;font-size:60px;'>+</div>,,,,html-keyboard-response,45,423386,0.0-5.0-1.13,oEFhKj3D,Self-control,Self-control,75,,True,,,,,,
46,1469.9649999965914,<div style='position:relative; min-width:800px; margin-bottom:360px;top:28.8px;'><div style='margin:auto 0;top:0px;text-align:left;'><p style='text-align:center;font-size: 36px;'>Domain: <strong>Self-control</strong></p><p style='text-align:center;font-size: 18px;'>Chances the treatment...</p><p><div style='display:inline-block;background-color:#ed713a;height:27px; width:40px;margin-right: 5px;'></div><b>Worsens</b> the deficit. The person becomes <b>unable</b> to control their thoughts and impulses.</p><p><div style='display:inline-block;background-color:#808080;height:27px; width:40px;margin-right: 5px;'></div>Has <b>no effect.</b> The person <b>still</b> has some trouble controlling their thoughts and impulses.</p><p><div style='display:inline-block;background-color:#4169e1;height:27px; width:40px;margin-right: 5px;'></div><b>Cures</b> the deficit. The person becomes <b>able</b> to control their thoughts and impulses.</p></div><div style='width:800px;margin-top:50px; margin:0 auto;'><div style='float: left;margin-left:225px;'><div style='border: 3px solid #000000;width: 150px; height:95px; background-color: grey;'><p style='text-align: center;margin-top:23%;font-size:14px;font-weight:bold;'>No Treatment</p></div><p class='small'><strong>Option 1</strong></p></div><div style='float: right;margin-right:225px;'><img style='border: 3px solid #000000; width: 150px; height:95px;' src='/static/images/stimulus_img14.png'></img><p class='small'><strong>Option 2</strong></p></div></div></div><div style='position:relative;margin-block-start:0px;margin-block-end:0px;bottom: 160px;'><p style='margin-block-start:0px;margin-block-end:0px;'>Use the 'z' key to select the treatment on the left</p><p style='margin-block-start:0px;margin-block-end:0px;'>Use the 'm' key to select the treatment on the right</p></div>,90.0,,,html-keyboard-response,46,424858,0.0-5.0-2.13,oEFhKj3D,Self-control,Self-control,75,,,right,/static/images/stimulus_img14.png,20.0,65.0,15.0,False
47,,,,,,html-keyboard-response,47,424858,0.0-5.0-0.14,oEFhKj3D,Self-control,Self-control,75,True,,,,,,,
48,,<div style='position:fixed;top:47%;left:49%;text-align:center;font-size:60px;'>+</div>,,,,html-keyboard-response,48,425860,0.0-5.0-1.14,oEFhKj3D,Self-control,Self-control,75,,True,,,,,,
49,1594.9300000065705,<div style='position:relative; min-width:800px; margin-bottom:360px;top:28.8px;'><div style='margin:auto 0;top:0px;text-align:left;'><p style='text-align:center;font-size: 36px;'>Domain: <strong>Self-control</strong></p><p style='text-align:center;font-size: 18px;'>Chances the treatment...</p><p><div style='display:inline-block;background-color:#ed713a;height:27px; width:40px;margin-right: 5px;'></div><b>Worsens</b> the deficit. The person becomes <b>unable</b> to control their thoughts and impulses.</p><p><div style='display:inline-block;background-color:#808080;height:27px; width:40px;margin-right: 5px;'></div>Has <b>no effect.</b> The person <b>still</b> has some trouble controlling their thoughts and impulses.</p><p><div style='display:inline-block;background-color:#4169e1;height:27px; width:40px;margin-right: 5px;'></div><b>Cures</b> the deficit. The person becomes <b>able</b> to control their thoughts and impulses.</p></div><div style='width:800px;margin-top:50px;margin: 0 auto;'><div style='float: left;margin-left:225px;'><img style='border: 3px solid #000000; width: 150px; height:95px;' src='/static/images/stimulus_img15.png'></img><p class='small'><strong>Option 1</strong></p></div><div style='float: right;margin-right:225px;'><div style=' width: 150px; height:95px; border: 3px solid #000000; background-color: grey;'><p style='text-align: center; margin-top:23%;font-size:14px;font-weight:bold;'>No treatment</p></div><p class='small'><strong>Option 2</strong></p></div></div></div><div style='position:relative;margin-block-start:0px;margin-block-end:0px;bottom: 160px;'><p style='margin-block-start:0px;margin-block-end:0px;'>Use the 'z' key to select the treatment on the left</p><p style='margin-block-start:0px;margin-block-end:0px;'>Use the 'm' key to select the treatment on the right</p></div>,90.0,,,html-keyboard-response,49,427457,0.0-5.0-2.14,oEFhKj3D,Self-control,Self-control,75,,,left,/static/images/stimulus_img15.png,30.0,10.0,60.0,True
50,,,,,,html-keyboard-response,50,427457,0.0-5.0-0.15,oEFhKj3D,Self-control,Self-control,75,True,,,,,,,
51,,<div style='position:fixed;top:47%;left:49%;text-align:center;font-size:60px;'>+</div>,,,,html-keyboard-response,51,428459,0.0-5.0-1.15,oEFhKj3D,Self-control,Self-control,75,,True,,,,,,
52,5213.459999999031,<div style='position:relative; min-width:800px; margin-bottom:360px;top:28.8px;'><div style='margin:auto 0;top:0px;text-align:left;'><p style='text-align:center;font-size: 36px;'>Domain: <strong>Self-control</strong></p><p style='text-align:center;font-size: 18px;'>Chances the treatment...</p><p><div style='display:inline-block;background-color:#ed713a;height:27px; width:40px;margin-right: 5px;'></div><b>Worsens</b> the deficit. The person becomes <b>unable</b> to control their thoughts and impulses.</p><p><div style='display:inline-block;background-color:#808080;height:27px; width:40px;margin-right: 5px;'></div>Has <b>no effect.</b> The person <b>still</b> has some trouble controlling their thoughts and impulses.</p><p><div style='display:inline-block;background-color:#4169e1;height:27px; width:40px;margin-right: 5px;'></div><b>Cures</b> the deficit. The person becomes <b>able</b> to control their thoughts and impulses.</p></div><div style='width:800px;margin-top:50px; margin:0 auto;'><div style='float: left;margin-left:225px;'><div style='border: 3px solid #000000;width: 150px; height:95px; background-color: grey;'><p style='text-align: center;margin-top:23%;font-size:14px;font-weight:bold;'>No Treatment</p></div><p class='small'><strong>Option 1</strong></p></div><div style='float: right;margin-right:225px;'><img style='border: 3px solid #000000; width: 150px; height:95px;' src='/static/images/stimulus_img16.png'></img><p class='small'><strong>Option 2</strong></p></div></div></div><div style='position:relative;margin-block-start:0px;margin-block-end:0px;bottom: 160px;'><p style='margin-block-start:0px;margin-block-end:0px;'>Use the 'z' key to select the treatment on the left</p><p style='margin-block-start:0px;margin-block-end:0px;'>Use the 'm' key to select the treatment on the right</p></div>,77.0,,,html-keyboard-response,52,433674,0.0-5.0-2.15,oEFhKj3D,Self-control,Self-control,75,,,right,/static/images/stimulus_img16.png,20.0,10.0,70.0,True
53,,,,,,html-keyboard-response,53,433674,0.0-5.0-0.16,oEFhKj3D,Self-control,Self-control,75,True,,,,,,,
54,,<div style='position:fixed;top:47%;left:49%;text-align:center;font-size:60px;'>+</div>,,,,html-keyboard-response,54,434675,0.0-5.0-1.16,oEFhKj3D,Self-control,Self-control,75,,True,,,,,,
55,105.48499999276828,<div style='position:relative; min-width:800px; margin-bottom:360px;top:28.8px;'><div style='margin:auto 0;top:0px;text-align:left;'><p style='text-align:center;font-size: 36px;'>Domain: <strong>Self-control</strong></p><p style='text-align:center;font-size: 18px;'>Chances the treatment...</p><p><div style='display:inline-block;background-color:#ed713a;height:27px; width:40px;margin-right: 5px;'></div><b>Worsens</b> the deficit. The person becomes <b>unable</b> to control their thoughts and impulses.</p><p><div style='display:inline-block;background-color:#808080;height:27px; width:40px;margin-right: 5px;'></div>Has <b>no effect.</b> The person <b>still</b> has some trouble controlling their thoughts and impulses.</p><p><div style='display:inline-block;background-color:#4169e1;height:27px; width:40px;margin-right: 5px;'></div><b>Cures</b> the deficit. The person becomes <b>able</b> to control their thoughts and impulses.</p></div><div style='width:800px;margin-top:50px; margin:0 auto;'><div style='float: left;margin-left:225px;'><div style='border: 3px solid #000000;width: 150px; height:95px; background-color: grey;'><p style='text-align: center;margin-top:23%;font-size:14px;font-weight:bold;'>No Treatment</p></div><p class='small'><strong>Option 1</strong></p></div><div style='float: right;margin-right:225px;'><img style='border: 3px solid #000000; width: 150px; height:95px;' src='/static/images/stimulus_img17.png'></img><p class='small'><strong>Option 2</strong></p></div></div></div><div style='position:relative;margin-block-start:0px;margin-block-end:0px;bottom: 160px;'><p style='margin-block-start:0px;margin-block-end:0px;'>Use the 'z' key to select the treatment on the left</p><p style='margin-block-start:0px;margin-block-end:0px;'>Use the 'm' key to select the treatment on the right</p></div>,77.0,,,html-keyboard-response,55,434783,0.0-5.0-2.16,oEFhKj3D,Self-control,Self-control,75,,,right,/static/images/stimulus_img17.png,90.0,5.0,5.0,True
56,,,,,,html-keyboard-response,56,434783,0.0-5.0-0.17,oEFhKj3D,Self-control,Self-control,75,True,,,,,,,
57,,<div style='position:fixed;top:47%;left:49%;text-align:center;font-size:60px;'>+</div>,,,,html-keyboard-response,57,435784,0.0-5.0-1.17,oEFhKj3D,Self-control,Self-control,75,,True,,,,,,
58,102.7849999954924,<div style='position:relative; min-width:800px; margin-bottom:360px;top:28.8px;'><div style='margin:auto 0;top:0px;text-align:left;'><p style='text-align:center;font-size: 36px;'>Domain: <strong>Self-control</strong></p><p style='text-align:center;font-size: 18px;'>Chances the treatment...</p><p><div style='display:inline-block;background-color:#ed713a;height:27px; width:40px;margin-right: 5px;'></div><b>Worsens</b> the deficit. The person becomes <b>unable</b> to control their thoughts and impulses.</p><p><div style='display:inline-block;background-color:#808080;height:27px; width:40px;margin-right: 5px;'></div>Has <b>no effect.</b> The person <b>still</b> has some trouble controlling their thoughts and impulses.</p><p><div style='display:inline-block;background-color:#4169e1;height:27px; width:40px;margin-right: 5px;'></div><b>Cures</b> the deficit. The person becomes <b>able</b> to control their thoughts and impulses.</p></div><div style='width:800px;margin-top:50px;margin: 0 auto;'><div style='float: left;margin-left:225px;'><img style='border: 3px solid #000000; width: 150px; height:95px;' src='/static/images/stimulus_img18.png'></img><p class='small'><strong>Option 1</strong></p></div><div style='float: right;margin-right:225px;'><div style=' width: 150px; height:95px; border: 3px solid #000000; background-color: grey;'><p style='text-align: center; margin-top:23%;font-size:14px;font-weight:bold;'>No treatment</p></div><p class='small'><strong>Option 2</strong></p></div></div></div><div style='position:relative;margin-block-start:0px;margin-block-end:0px;bottom: 160px;'><p style='margin-block-start:0px;margin-block-end:0px;'>Use the 'z' key to select the treatment on the left</p><p style='margin-block-start:0px;margin-block-end:0px;'>Use the 'm' key to select the treatment on the right</p></div>,77.0,,,html-keyboard-response,58,435889,0.0-5.0-2.17,oEFhKj3D,Self-control,Self-control,75,,,left,/static/images/stimulus_img18.png,85.0,10.0,5.0,False
59,,,,,,html-keyboard-response,59,435889,0.0-5.0-0.18,oEFhKj3D,Self-control,Self-control,75,True,,,,,,,
60,,<div style='position:fixed;top:47%;left:49%;text-align:center;font-size:60px;'>+</div>,,,,html-keyboard-response,60,436890,0.0-5.0-1.18,oEFhKj3D,Self-control,Self-control,75,,True,,,,,,
61,107.96999999729451,<div style='position:relative; min-width:800px; margin-bottom:360px;top:28.8px;'><div style='margin:auto 0;top:0px;text-align:left;'><p style='text-align:center;font-size: 36px;'>Domain: <strong>Self-control</strong></p><p style='text-align:center;font-size: 18px;'>Chances the treatment...</p><p><div style='display:inline-block;background-color:#ed713a;height:27px; width:40px;margin-right: 5px;'></div><b>Worsens</b> the deficit. The person becomes <b>unable</b> to control their thoughts and impulses.</p><p><div style='display:inline-block;background-color:#808080;height:27px; width:40px;margin-right: 5px;'></div>Has <b>no effect.</b> The person <b>still</b> has some trouble controlling their thoughts and impulses.</p><p><div style='display:inline-block;background-color:#4169e1;height:27px; width:40px;margin-right: 5px;'></div><b>Cures</b> the deficit. The person becomes <b>able</b> to control their thoughts and impulses.</p></div><div style='width:800px;margin-top:50px;margin: 0 auto;'><div style='float: left;margin-left:225px;'><img style='border: 3px solid #000000; width: 150px; height:95px;' src='/static/images/stimulus_img19.png'></img><p class='small'><strong>Option 1</strong></p></div><div style='float: right;margin-right:225px;'><div style=' width: 150px; height:95px; border: 3px solid #000000; background-color: grey;'><p style='text-align: center; margin-top:23%;font-size:14px;font-weight:bold;'>No treatment</p></div><p class='small'><strong>Option 2</strong></p></div></div></div><div style='position:relative;margin-block-start:0px;margin-block-end:0px;bottom: 160px;'><p style='margin-block-start:0px;margin-block-end:0px;'>Use the 'z' key to select the treatment on the left</p><p style='margin-block-start:0px;margin-block-end:0px;'>Use the 'm' key to select the treatment on the right</p></div>,90.0,,,html-keyboard-response,61,437000,0.0-5.0-2.18,oEFhKj3D,Self-control,Self-control,75,,,left,/static/images/stimulus_img19.png,90.0,5.0,5.0,True
62,,,,,,html-keyboard-response,62,437001,0.0-5.0-0.19,oEFhKj3D,Self-control,Self-control,75,True,,,,,,,
63,,<div style='position:fixed;top:47%;left:49%;text-align:center;font-size:60px;'>+</div>,,,,html-keyboard-response,63,438002,0.0-5.0-1.19,oEFhKj3D,Self-control,Self-control,75,,True,,,,,,
64,111.32499999075662,<div style='position:relative; min-width:800px; margin-bottom:360px;top:28.8px;'><div style='margin:auto 0;top:0px;text-align:left;'><p style='text-align:center;font-size: 36px;'>Domain: <strong>Self-control</strong></p><p style='text-align:center;font-size: 18px;'>Chances the treatment...</p><p><div style='display:inline-block;background-color:#ed713a;height:27px; width:40px;margin-right: 5px;'></div><b>Worsens</b> the deficit. The person becomes <b>unable</b> to control their thoughts and impulses.</p><p><div style='display:inline-block;background-color:#808080;height:27px; width:40px;margin-right: 5px;'></div>Has <b>no effect.</b> The person <b>still</b> has some trouble controlling their thoughts and impulses.</p><p><div style='display:inline-block;background-color:#4169e1;height:27px; width:40px;margin-right: 5px;'></div><b>Cures</b> the deficit. The person becomes <b>able</b> to control their thoughts and impulses.</p></div><div style='width:800px;margin-top:50px;margin: 0 auto;'><div style='float: left;margin-left:225px;'><img style='border: 3px solid #000000; width: 150px; height:95px;' src='/static/images/stimulus_img20.png'></img><p class='small'><strong>Option 1</strong></p></div><div style='float: right;margin-right:225px;'><div style=' width: 150px; height:95px; border: 3px solid #000000; background-color: grey;'><p style='text-align: center; margin-top:23%;font-size:14px;font-weight:bold;'>No treatment</p></div><p class='small'><strong>Option 2</strong></p></div></div></div><div style='position:relative;margin-block-start:0px;margin-block-end:0px;bottom: 160px;'><p style='margin-block-start:0px;margin-block-end:0px;'>Use the 'z' key to select the treatment on the left</p><p style='margin-block-start:0px;margin-block-end:0px;'>Use the 'm' key to select the treatment on the right</p></div>,77.0,,,html-keyboard-response,64,438116,0.0-5.0-2.19,oEFhKj3D,Self-control,Self-control,75,,,left,/static/images/stimulus_img20.png,45.0,35.0,20.0,False
65,,,,,,html-keyboard-response,65,438116,0.0-5.0-0.20,oEFhKj3D,Self-control,Self-control,75,True,,,,,,,
66,,<div style='position:fixed;top:47%;left:49%;text-align:center;font-size:60px;'>+</div>,,,,html-keyboard-response,66,439118,0.0-5.0-1.20,oEFhKj3D,Self-control,Self-control,75,,True,,,,,,
67,109.57000000053085,<div style='position:relative; min-width:800px; margin-bottom:360px;top:28.8px;'><div style='margin:auto 0;top:0px;text-align:left;'><p style='text-align:center;font-size: 36px;'>Domain: <strong>Self-control</strong></p><p style='text-align:center;font-size: 18px;'>Chances the treatment...</p><p><div style='display:inline-block;background-color:#ed713a;height:27px; width:40px;margin-right: 5px;'></div><b>Worsens</b> the deficit. The person becomes <b>unable</b> to control their thoughts and impulses.</p><p><div style='display:inline-block;background-color:#808080;height:27px; width:40px;margin-right: 5px;'></div>Has <b>no effect.</b> The person <b>still</b> has some trouble controlling their thoughts and impulses.</p><p><div style='display:inline-block;background-color:#4169e1;height:27px; width:40px;margin-right: 5px;'></div><b>Cures</b> the deficit. The person becomes <b>able</b> to control their thoughts and impulses.</p></div><div style='width:800px;margin-top:50px;margin: 0 auto;'><div style='float: left;margin-left:225px;'><img style='border: 3px solid #000000; width: 150px; height:95px;' src='/static/images/stimulus_img21.png'></img><p class='small'><strong>Option 1</strong></p></div><div style='float: right;margin-right:225px;'><div style=' width: 150px; height:95px; border: 3px solid #000000; background-color: grey;'><p style='text-align: center; margin-top:23%;font-size:14px;font-weight:bold;'>No treatment</p></div><p class='small'><strong>Option 2</strong></p></div></div></div><div style='position:relative;margin-block-start:0px;margin-block-end:0px;bottom: 160px;'><p style='margin-block-start:0px;margin-block-end:0px;'>Use the 'z' key to select the treatment on the left</p><p style='margin-block-start:0px;margin-block-end:0px;'>Use the 'm' key to select the treatment on the right</p></div>,77.0,,,html-keyboard-response,67,439229,0.0-5.0-2.20,oEFhKj3D,Self-control,Self-control,75,,,left,/static/images/stimulus_img21.png,85.0,10.0,5.0,False
68,,,,,,html-keyboard-response,68,439230,0.0-5.0-0.21,oEFhKj3D,Self-control,Self-control,75,True,,,,,,,
69,,<div style='position:fixed;top:47%;left:49%;text-align:center;font-size:60px;'>+</div>,,,,html-keyboard-response,69,440231,0.0-5.0-1.21,oEFhKj3D,Self-control,Self-control,75,,True,,,,,,
70,104.72499999741558,<div style='position:relative; min-width:800px; margin-bottom:360px;top:28.8px;'><div style='margin:auto 0;top:0px;text-align:left;'><p style='text-align:center;font-size: 36px;'>Domain: <strong>Self-control</strong></p><p style='text-align:center;font-size: 18px;'>Chances the treatment...</p><p><div style='display:inline-block;background-color:#ed713a;height:27px; width:40px;margin-right: 5px;'></div><b>Worsens</b> the deficit. The person becomes <b>unable</b> to control their thoughts and impulses.</p><p><div style='display:inline-block;background-color:#808080;height:27px; width:40px;margin-right: 5px;'></div>Has <b>no effect.</b> The person <b>still</b> has some trouble controlling their thoughts and impulses.</p><p><div style='display:inline-block;background-color:#4169e1;height:27px; width:40px;margin-right: 5px;'></div><b>Cures</b> the deficit. The person becomes <b>able</b> to control their thoughts and impulses.</p></div><div style='width:800px;margin-top:50px; margin:0 auto;'><div style='float: left;margin-left:225px;'><div style='border: 3px solid #000000;width: 150px; height:95px; background-color: grey;'><p style='text-align: center;margin-top:23%;font-size:14px;font-weight:bold;'>No Treatment</p></div><p class='small'><strong>Option 1</strong></p></div><div style='float: right;margin-right:225px;'><img style='border: 3px solid #000000; width: 150px; height:95px;' src='/static/images/stimulus_img22.png'></img><p class='small'><strong>Option 2</strong></p></div></div></div><div style='position:relative;margin-block-start:0px;margin-block-end:0px;bottom: 160px;'><p style='margin-block-start:0px;margin-block-end:0px;'>Use the 'z' key to select the treatment on the left</p><p style='margin-block-start:0px;margin-block-end:0px;'>Use the 'm' key to select the treatment on the right</p></div>,90.0,,,html-keyboard-response,70,440337,0.0-5.0-2.21,oEFhKj3D,Self-control,Self-control,75,,,right,/static/images/stimulus_img22.png,50.0,15.0,35.0,False
71,,,,,,html-keyboard-response,71,440338,0.0-5.0-0.22,oEFhKj3D,Self-control,Self-control,75,True,,,,,,,
72,,<div style='position:fixed;top:47%;left:49%;text-align:center;font-size:60px;'>+</div>,,,,html-keyboard-response,72,441339,0.0-5.0-1.22,oEFhKj3D,Self-control,Self-control,75,,True,,,,,,
73,101.82500000519212,<div style='position:relative; min-width:800px; margin-bottom:360px;top:28.8px;'><div style='margin:auto 0;top:0px;text-align:left;'><p style='text-align:center;font-size: 36px;'>Domain: <strong>Self-control</strong></p><p style='text-align:center;font-size: 18px;'>Chances the treatment...</p><p><div style='display:inline-block;background-color:#ed713a;height:27px; width:40px;margin-right: 5px;'></div><b>Worsens</b> the deficit. The person becomes <b>unable</b> to control their thoughts and impulses.</p><p><div style='display:inline-block;background-color:#808080;height:27px; width:40px;margin-right: 5px;'></div>Has <b>no effect.</b> The person <b>still</b> has some trouble controlling their thoughts and impulses.</p><p><div style='display:inline-block;background-color:#4169e1;height:27px; width:40px;margin-right: 5px;'></div><b>Cures</b> the deficit. The person becomes <b>able</b> to control their thoughts and impulses.</p></div><div style='width:800px;margin-top:50px; margin:0 auto;'><div style='float: left;margin-left:225px;'><div style='border: 3px solid #000000;width: 150px; height:95px; background-color: grey;'><p style='text-align: center;margin-top:23%;font-size:14px;font-weight:bold;'>No Treatment</p></div><p class='small'><strong>Option 1</strong></p></div><div style='float: right;margin-right:225px;'><img style='border: 3px solid #000000; width: 150px; height:95px;' src='/static/images/stimulus_img23.png'></img><p class='small'><strong>Option 2</strong></p></div></div></div><div style='position:relative;margin-block-start:0px;margin-block-end:0px;bottom: 160px;'><p style='margin-block-start:0px;margin-block-end:0px;'>Use the 'z' key to select the treatment on the left</p><p style='margin-block-start:0px;margin-block-end:0px;'>Use the 'm' key to select the treatment on the right</p></div>,90.0,,,html-keyboard-response,73,441442,0.0-5.0-2.22,oEFhKj3D,Self-control,Self-control,75,,,right,/static/images/stimulus_img23.png,80.0,15.0,5.0,False
74,,,,,,html-keyboard-response,74,441443,0.0-5.0-0.23,oEFhKj3D,Self-control,Self-control,75,True,,,,,,,
75,,<div style='position:fixed;top:47%;left:49%;text-align:center;font-size:60px;'>+</div>,,,,html-keyboard-response,75,442445,0.0-5.0-1.23,oEFhKj3D,Self-control,Self-control,75,,True,,,,,,
76,151.7500000045402,<div style='position:relative; min-width:800px; margin-bottom:360px;top:28.8px;'><div style='margin:auto 0;top:0px;text-align:left;'><p style='text-align:center;font-size: 36px;'>Domain: <strong>Self-control</strong></p><p style='text-align:center;font-size: 18px;'>Chances the treatment...</p><p><div style='display:inline-block;background-color:#ed713a;height:27px; width:40px;margin-right: 5px;'></div><b>Worsens</b> the deficit. The person becomes <b>unable</b> to control their thoughts and impulses.</p><p><div style='display:inline-block;background-color:#808080;height:27px; width:40px;margin-right: 5px;'></div>Has <b>no effect.</b> The person <b>still</b> has some trouble controlling their thoughts and impulses.</p><p><div style='display:inline-block;background-color:#4169e1;height:27px; width:40px;margin-right: 5px;'></div><b>Cures</b> the deficit. The person becomes <b>able</b> to control their thoughts and impulses.</p></div><div style='width:800px;margin-top:50px;margin: 0 auto;'><div style='float: left;margin-left:225px;'><img style='border: 3px solid #000000; width: 150px; height:95px;' src='/static/images/stimulus_img24.png'></img><p class='small'><strong>Option 1</strong></p></div><div style='float: right;margin-right:225px;'><div style=' width: 150px; height:95px; border: 3px solid #000000; background-color: grey;'><p style='text-align: center; margin-top:23%;font-size:14px;font-weight:bold;'>No treatment</p></div><p class='small'><strong>Option 2</strong></p></div></div></div><div style='position:relative;margin-block-start:0px;margin-block-end:0px;bottom: 160px;'><p style='margin-block-start:0px;margin-block-end:0px;'>Use the 'z' key to select the treatment on the left</p><p style='margin-block-start:0px;margin-block-end:0px;'>Use the 'm' key to select the treatment on the right</p></div>,77.0,,,html-keyboard-response,76,442598,0.0-5.0-2.23,oEFhKj3D,Self-control,Self-control,75,,,left,/static/images/stimulus_img24.png,80.0,5.0,15.0,False
77,,,,,,html-keyboard-response,77,442599,0.0-5.0-0.24,oEFhKj3D,Self-control,Self-control,75,True,,,,,,,
78,,<div style='position:fixed;top:47%;left:49%;text-align:center;font-size:60px;'>+</div>,,,,html-keyboard-response,78,443600,0.0-5.0-1.24,oEFhKj3D,Self-control,Self-control,75,,True,,,,,,
79,103.54999999981374,<div style='position:relative; min-width:800px; margin-bottom:360px;top:28.8px;'><div style='margin:auto 0;top:0px;text-align:left;'><p style='text-align:center;font-size: 36px;'>Domain: <strong>Self-control</strong></p><p style='text-align:center;font-size: 18px;'>Chances the treatment...</p><p><div style='display:inline-block;background-color:#ed713a;height:27px; width:40px;margin-right: 5px;'></div><b>Worsens</b> the deficit. The person becomes <b>unable</b> to control their thoughts and impulses.</p><p><div style='display:inline-block;background-color:#808080;height:27px; width:40px;margin-right: 5px;'></div>Has <b>no effect.</b> The person <b>still</b> has some trouble controlling their thoughts and impulses.</p><p><div style='display:inline-block;background-color:#4169e1;height:27px; width:40px;margin-right: 5px;'></div><b>Cures</b> the deficit. The person becomes <b>able</b> to control their thoughts and impulses.</p></div><div style='width:800px;margin-top:50px;margin: 0 auto;'><div style='float: left;margin-left:225px;'><img style='border: 3px solid #000000; width: 150px; height:95px;' src='/static/images/stimulus_img25.png'></img><p class='small'><strong>Option 1</strong></p></div><div style='float: right;margin-right:225px;'><div style=' width: 150px; height:95px; border: 3px solid #000000; background-color: grey;'><p style='text-align: center; margin-top:23%;font-size:14px;font-weight:bold;'>No treatment</p></div><p class='small'><strong>Option 2</strong></p></div></div></div><div style='position:relative;margin-block-start:0px;margin-block-end:0px;bottom: 160px;'><p style='margin-block-start:0px;margin-block-end:0px;'>Use the 'z' key to select the treatment on the left</p><p style='margin-block-start:0px;margin-block-end:0px;'>Use the 'm' key to select the treatment on the right</p></div>,77.0,,,html-keyboard-response,79,443705,0.0-5.0-2.24,oEFhKj3D,Self-control,Self-control,75,,,left,/static/images/stimulus_img25.png,75.0,15.0,10.0,False
80,,,,,,html-keyboard-response,80,443705,0.0-5.0-0.25,oEFhKj3D,Self-control,Self-control,75,True,,,,,,,
81,,<div style='position:fixed;top:47%;left:49%;text-align:center;font-size:60px;'>+</div>,,,,html-keyboard-response,81,444708,0.0-5.0-1.25,oEFhKj3D,Self-control,Self-control,75,,True,,,,,,
82,112.80499999702442,<div style='position:relative; min-width:800px; margin-bottom:360px;top:28.8px;'><div style='margin:auto 0;top:0px;text-align:left;'><p style='text-align:center;font-size: 36px;'>Domain: <strong>Self-control</strong></p><p style='text-align:center;font-size: 18px;'>Chances the treatment...</p><p><div style='display:inline-block;background-color:#ed713a;height:27px; width:40px;margin-right: 5px;'></div><b>Worsens</b> the deficit. The person becomes <b>unable</b> to control their thoughts and impulses.</p><p><div style='display:inline-block;background-color:#808080;height:27px; width:40px;margin-right: 5px;'></div>Has <b>no effect.</b> The person <b>still</b> has some trouble controlling their thoughts and impulses.</p><p><div style='display:inline-block;background-color:#4169e1;height:27px; width:40px;margin-right: 5px;'></div><b>Cures</b> the deficit. The person becomes <b>able</b> to control their thoughts and impulses.</p></div><div style='width:800px;margin-top:50px;margin: 0 auto;'><div style='float: left;margin-left:225px;'><img style='border: 3px solid #000000; width: 150px; height:95px;' src='/static/images/stimulus_img26.png'></img><p class='small'><strong>Option 1</strong></p></div><div style='float: right;margin-right:225px;'><div style=' width: 150px; height:95px; border: 3px solid #000000; background-color: grey;'><p style='text-align: center; margin-top:23%;font-size:14px;font-weight:bold;'>No treatment</p></div><p class='small'><strong>Option 2</strong></p></div></div></div><div style='position:relative;margin-block-start:0px;margin-block-end:0px;bottom: 160px;'><p style='margin-block-start:0px;margin-block-end:0px;'>Use the 'z' key to select the treatment on the left</p><p style='margin-block-start:0px;margin-block-end:0px;'>Use the 'm' key to select the treatment on the right</p></div>,90.0,,,html-keyboard-response,82,444822,0.0-5.0-2.25,oEFhKj3D,Self-control,Self-control,75,,,left,/static/images/stimulus_img26.png,15.0,25.0,60.0,True
83,,,,,,html-keyboard-response,83,444823,0.0-5.0-0.26,oEFhKj3D,Self-control,Self-control,75,True,,,,,,,
84,,<div style='position:fixed;top:47%;left:49%;text-align:center;font-size:60px;'>+</div>,,,,html-keyboard-response,84,445825,0.0-5.0-1.26,oEFhKj3D,Self-control,Self-control,75,,True,,,,,,
85,114.82000000250991,<div style='position:relative; min-width:800px; margin-bottom:360px;top:28.8px;'><div style='margin:auto 0;top:0px;text-align:left;'><p style='text-align:center;font-size: 36px;'>Domain: <strong>Self-control</strong></p><p style='text-align:center;font-size: 18px;'>Chances the treatment...</p><p><div style='display:inline-block;background-color:#ed713a;height:27px; width:40px;margin-right: 5px;'></div><b>Worsens</b> the deficit. The person becomes <b>unable</b> to control their thoughts and impulses.</p><p><div style='display:inline-block;background-color:#808080;height:27px; width:40px;margin-right: 5px;'></div>Has <b>no effect.</b> The person <b>still</b> has some trouble controlling their thoughts and impulses.</p><p><div style='display:inline-block;background-color:#4169e1;height:27px; width:40px;margin-right: 5px;'></div><b>Cures</b> the deficit. The person becomes <b>able</b> to control their thoughts and impulses.</p></div><div style='width:800px;margin-top:50px;margin: 0 auto;'><div style='float: left;margin-left:225px;'><img style='border: 3px solid #000000; width: 150px; height:95px;' src='/static/images/stimulus_img27.png'></img><p class='small'><strong>Option 1</strong></p></div><div style='float: right;margin-right:225px;'><div style=' width: 150px; height:95px; border: 3px solid #000000; background-color: grey;'><p style='text-align: center; margin-top:23%;font-size:14px;font-weight:bold;'>No treatment</p></div><p class='small'><strong>Option 2</strong></p></div></div></div><div style='position:relative;margin-block-start:0px;margin-block-end:0px;bottom: 160px;'><p style='margin-block-start:0px;margin-block-end:0px;'>Use the 'z' key to select the treatment on the left</p><p style='margin-block-start:0px;margin-block-end:0px;'>Use the 'm' key to select the treatment on the right</p></div>,77.0,,,html-keyboard-response,85,445941,0.0-5.0-2.26,oEFhKj3D,Self-control,Self-control,75,,,left,/static/images/stimulus_img27.png,10.0,30.0,60.0,False
86,,,,,,html-keyboard-response,86,445942,0.0-5.0-0.27,oEFhKj3D,Self-control,Self-control,75,True,,,,,,,
87,,<div style='position:fixed;top:47%;left:49%;text-align:center;font-size:60px;'>+</div>,,,,html-keyboard-response,87,446943,0.0-5.0-1.27,oEFhKj3D,Self-control,Self-control,75,,True,,,,,,
88,103.16500000772066,<div style='position:relative; min-width:800px; margin-bottom:360px;top:28.8px;'><div style='margin:auto 0;top:0px;text-align:left;'><p style='text-align:center;font-size: 36px;'>Domain: <strong>Self-control</strong></p><p style='text-align:center;font-size: 18px;'>Chances the treatment...</p><p><div style='display:inline-block;background-color:#ed713a;height:27px; width:40px;margin-right: 5px;'></div><b>Worsens</b> the deficit. The person becomes <b>unable</b> to control their thoughts and impulses.</p><p><div style='display:inline-block;background-color:#808080;height:27px; width:40px;margin-right: 5px;'></div>Has <b>no effect.</b> The person <b>still</b> has some trouble controlling their thoughts and impulses.</p><p><div style='display:inline-block;background-color:#4169e1;height:27px; width:40px;margin-right: 5px;'></div><b>Cures</b> the deficit. The person becomes <b>able</b> to control their thoughts and impulses.</p></div><div style='width:800px;margin-top:50px; margin:0 auto;'><div style='float: left;margin-left:225px;'><div style='border: 3px solid #000000;width: 150px; height:95px; background-color: grey;'><p style='text-align: center;margin-top:23%;font-size:14px;font-weight:bold;'>No Treatment</p></div><p class='small'><strong>Option 1</strong></p></div><div style='float: right;margin-right:225px;'><img style='border: 3px solid #000000; width: 150px; height:95px;' src='/static/images/stimulus_img28.png'></img><p class='small'><strong>Option 2</strong></p></div></div></div><div style='position:relative;margin-block-start:0px;margin-block-end:0px;bottom: 160px;'><p style='margin-block-start:0px;margin-block-end:0px;'>Use the 'z' key to select the treatment on the left</p><p style='margin-block-start:0px;margin-block-end:0px;'>Use the 'm' key to select the treatment on the right</p></div>,90.0,,,html-keyboard-response,88,447047,0.0-5.0-2.27,oEFhKj3D,Self-control,Self-control,75,,,right,/static/images/stimulus_img28.png,5.0,60.0,35.0,False
89,,,,,,html-keyboard-response,89,447048,0.0-5.0-0.28,oEFhKj3D,Self-control,Self-control,75,True,,,,,,,
90,,<div style='position:fixed;top:47%;left:49%;text-align:center;font-size:60px;'>+</div>,,,,html-keyboard-response,90,448050,0.0-5.0-1.28,oEFhKj3D,Self-control,Self-control,75,,True,,,,,,
91,107.66999999759719,<div style='position:relative; min-width:800px; margin-bottom:360px;top:28.8px;'><div style='margin:auto 0;top:0px;text-align:left;'><p style='text-align:center;font-size: 36px;'>Domain: <strong>Self-control</strong></p><p style='text-align:center;font-size: 18px;'>Chances the treatment...</p><p><div style='display:inline-block;background-color:#ed713a;height:27px; width:40px;margin-right: 5px;'></div><b>Worsens</b> the deficit. The person becomes <b>unable</b> to control their thoughts and impulses.</p><p><div style='display:inline-block;background-color:#808080;height:27px; width:40px;margin-right: 5px;'></div>Has <b>no effect.</b> The person <b>still</b> has some trouble controlling their thoughts and impulses.</p><p><div style='display:inline-block;background-color:#4169e1;height:27px; width:40px;margin-right: 5px;'></div><b>Cures</b> the deficit. The person becomes <b>able</b> to control their thoughts and impulses.</p></div><div style='width:800px;margin-top:50px; margin:0 auto;'><div style='float: left;margin-left:225px;'><div style='border: 3px solid #000000;width: 150px; height:95px; background-color: grey;'><p style='text-align: center;margin-top:23%;font-size:14px;font-weight:bold;'>No Treatment</p></div><p class='small'><strong>Option 1</strong></p></div><div style='float: right;margin-right:225px;'><img style='border: 3px solid #000000; width: 150px; height:95px;' src='/static/images/stimulus_img29.png'></img><p class='small'><strong>Option 2</strong></p></div></div></div><div style='position:relative;margin-block-start:0px;margin-block-end:0px;bottom: 160px;'><p style='margin-block-start:0px;margin-block-end:0px;'>Use the 'z' key to select the treatment on the left</p><p style='margin-block-start:0px;margin-block-end:0px;'>Use the 'm' key to select the treatment on the right</p></div>,77.0,,,html-keyboard-response,91,448160,0.0-5.0-2.28,oEFhKj3D,Self-control,Self-control,75,,,right,/static/images/stimulus_img29.png,60.0,30.0,10.0,True
92,,,,,,html-keyboard-response,92,448160,0.0-5.0-0.29,oEFhKj3D,Self-control,Self-control,75,True,,,,,,,
93,,<div style='position:fixed;top:47%;left:49%;text-align:center;font-size:60px;'>+</div>,,,,html-keyboard-response,93,449162,0.0-5.0-1.29,oEFhKj3D,Self-control,Self-control,75,,True,,,,,,
94,665.3000000078464,<div style='position:relative; min-width:800px; margin-bottom:360px;top:28.8px;'><div style='margin:auto 0;top:0px;text-align:left;'><p style='text-align:center;font-size: 36px;'>Domain: <strong>Self-control</strong></p><p style='text-align:center;font-size: 18px;'>Chances the treatment...</p><p><div style='display:inline-block;background-color:#ed713a;height:27px; width:40px;margin-right: 5px;'></div><b>Worsens</b> the deficit. The person becomes <b>unable</b> to control their thoughts and impulses.</p><p><div style='display:inline-block;background-color:#808080;height:27px; width:40px;margin-right: 5px;'></div>Has <b>no effect.</b> The person <b>still</b> has some trouble controlling their thoughts and impulses.</p><p><div style='display:inline-block;background-color:#4169e1;height:27px; width:40px;margin-right: 5px;'></div><b>Cures</b> the deficit. The person becomes <b>able</b> to control their thoughts and impulses.</p></div><div style='width:800px;margin-top:50px; margin:0 auto;'><div style='float: left;margin-left:225px;'><div style='border: 3px solid #000000;width: 150px; height:95px; background-color: grey;'><p style='text-align: center;margin-top:23%;font-size:14px;font-weight:bold;'>No Treatment</p></div><p class='small'><strong>Option 1</strong></p></div><div style='float: right;margin-right:225px;'><img style='border: 3px solid #000000; width: 150px; height:95px;' src='/static/images/stimulus_img30.png'></img><p class='small'><strong>Option 2</strong></p></div></div></div><div style='position:relative;margin-block-start:0px;margin-block-end:0px;bottom: 160px;'><p style='margin-block-start:0px;margin-block-end:0px;'>Use the 'z' key to select the treatment on the left</p><p style='margin-block-start:0px;margin-block-end:0px;'>Use the 'm' key to select the treatment on the right</p></div>,90.0,,,html-keyboard-response,94,449829,0.0-5.0-2.29,oEFhKj3D,Self-control,Self-control,75,,,right,/static/images/stimulus_img30.png,25.0,30.0,45.0,False
95,,,,,,html-keyboard-response,95,449829,0.0-5.0-0.30,oEFhKj3D,Self-control,Self-control,75,True,,,,,,,
96,,<div style='position:fixed;top:47%;left:49%;text-align:center;font-size:60px;'>+</div>,,,,html-keyboard-response,96,450830,0.0-5.0-1.30,oEFhKj3D,Self-control,Self-control,75,,True,,,,,,
97,144.7900000057416,<div style='position:relative; min-width:800px; margin-bottom:360px;top:28.8px;'><div style='margin:auto 0;top:0px;text-align:left;'><p style='text-align:center;font-size: 36px;'>Domain: <strong>Self-control</strong></p><p style='text-align:center;font-size: 18px;'>Chances the treatment...</p><p><div style='display:inline-block;background-color:#ed713a;height:27px; width:40px;margin-right: 5px;'></div><b>Worsens</b> the deficit. The person becomes <b>unable</b> to control their thoughts and impulses.</p><p><div style='display:inline-block;background-color:#808080;height:27px; width:40px;margin-right: 5px;'></div>Has <b>no effect.</b> The person <b>still</b> has some trouble controlling their thoughts and impulses.</p><p><div style='display:inline-block;background-color:#4169e1;height:27px; width:40px;margin-right: 5px;'></div><b>Cures</b> the deficit. The person becomes <b>able</b> to control their thoughts and impulses.</p></div><div style='width:800px;margin-top:50px; margin:0 auto;'><div style='float: left;margin-left:225px;'><div style='border: 3px solid #000000;width: 150px; height:95px; background-color: grey;'><p style='text-align: center;margin-top:23%;font-size:14px;font-weight:bold;'>No Treatment</p></div><p class='small'><strong>Option 1</strong></p></div><div style='float: right;margin-right:225px;'><img style='border: 3px solid #000000; width: 150px; height:95px;' src='/static/images/stimulus_img31.png'></img><p class='small'><strong>Option 2</strong></p></div></div></div><div style='position:relative;margin-block-start:0px;margin-block-end:0px;bottom: 160px;'><p style='margin-block-start:0px;margin-block-end:0px;'>Use the 'z' key to select the treatment on the left</p><p style='margin-block-start:0px;margin-block-end:0px;'>Use the 'm' key to select the treatment on the right</p></div>,77.0,,,html-keyboard-response,97,450977,0.0-5.0-2.30,oEFhKj3D,Self-control,Self-control,75,,,right,/static/images/stimulus_img31.png,70.0,25.0,5.0,True
98,,,,,,html-keyboard-response,98,450977,0.0-5.0-0.31,oEFhKj3D,Self-control,Self-control,75,True,,,,,,,
99,,<div style='position:fixed;top:47%;left:49%;text-align:center;font-size:60px;'>+</div>,,,,html-keyboard-response,99,451978,0.0-5.0-1.31,oEFhKj3D,Self-control,Self-control,75,,True,,,,,,
100,102.25000001082662,<div style='position:relative; min-width:800px; margin-bottom:360px;top:28.8px;'><div style='margin:auto 0;top:0px;text-align:left;'><p style='text-align:center;font-size: 36px;'>Domain: <strong>Self-control</strong></p><p style='text-align:center;font-size: 18px;'>Chances the treatment...</p><p><div style='display:inline-block;background-color:#ed713a;height:27px; width:40px;margin-right: 5px;'></div><b>Worsens</b> the deficit. The person becomes <b>unable</b> to control their thoughts and impulses.</p><p><div style='display:inline-block;background-color:#808080;height:27px; width:40px;margin-right: 5px;'></div>Has <b>no effect.</b> The person <b>still</b> has some trouble controlling their thoughts and impulses.</p><p><div style='display:inline-block;background-color:#4169e1;height:27px; width:40px;margin-right: 5px;'></div><b>Cures</b> the deficit. The person becomes <b>able</b> to control their thoughts and impulses.</p></div><div style='width:800px;margin-top:50px;margin: 0 auto;'><div style='float: left;margin-left:225px;'><img style='border: 3px solid #000000; width: 150px; height:95px;' src='/static/images/stimulus_img32.png'></img><p class='small'><strong>Option 1</strong></p></div><div style='float: right;margin-right:225px;'><div style=' width: 150px; height:95px; border: 3px solid #000000; background-color: grey;'><p style='text-align: center; margin-top:23%;font-size:14px;font-weight:bold;'>No treatment</p></div><p class='small'><strong>Option 2</strong></p></div></div></div><div style='position:relative;margin-block-start:0px;margin-block-end:0px;bottom: 160px;'><p style='margin-block-start:0px;margin-block-end:0px;'>Use the 'z' key to select the treatment on the left</p><p style='margin-block-start:0px;margin-block-end:0px;'>Use the 'm' key to select the treatment on the right</p></div>,77.0,,,html-keyboard-response,100,452083,0.0-5.0-2.31,oEFhKj3D,Self-control,Self-control,75,,,left,/static/images/stimulus_img32.png,50.0,15.0,35.0,False
101,,,,,,html-keyboard-response,101,452083,0.0-5.0-0.32,oEFhKj3D,Self-control,Self-control,75,True,,,,,,,
102,,<div style='position:fixed;top:47%;left:49%;text-align:center;font-size:60px;'>+</div>,,,,html-keyboard-response,102,453084,0.0-5.0-1.32,oEFhKj3D,Self-control,Self-control,75,,True,,,,,,
103,100.69500000099652,<div style='position:relative; min-width:800px; margin-bottom:360px;top:28.8px;'><div style='margin:auto 0;top:0px;text-align:left;'><p style='text-align:center;font-size: 36px;'>Domain: <strong>Self-control</strong></p><p style='text-align:center;font-size: 18px;'>Chances the treatment...</p><p><div style='display:inline-block;background-color:#ed713a;height:27px; width:40px;margin-right: 5px;'></div><b>Worsens</b> the deficit. The person becomes <b>unable</b> to control their thoughts and impulses.</p><p><div style='display:inline-block;background-color:#808080;height:27px; width:40px;margin-right: 5px;'></div>Has <b>no effect.</b> The person <b>still</b> has some trouble controlling their thoughts and impulses.</p><p><div style='display:inline-block;background-color:#4169e1;height:27px; width:40px;margin-right: 5px;'></div><b>Cures</b> the deficit. The person becomes <b>able</b> to control their thoughts and impulses.</p></div><div style='width:800px;margin-top:50px; margin:0 auto;'><div style='float: left;margin-left:225px;'><div style='border: 3px solid #000000;width: 150px; height:95px; background-color: grey;'><p style='text-align: center;margin-top:23%;font-size:14px;font-weight:bold;'>No Treatment</p></div><p class='small'><strong>Option 1</strong></p></div><div style='float: right;margin-right:225px;'><img style='border: 3px solid #000000; width: 150px; height:95px;' src='/static/images/stimulus_img33.png'></img><p class='small'><strong>Option 2</strong></p></div></div></div><div style='position:relative;margin-block-start:0px;margin-block-end:0px;bottom: 160px;'><p style='margin-block-start:0px;margin-block-end:0px;'>Use the 'z' key to select the treatment on the left</p><p style='margin-block-start:0px;margin-block-end:0px;'>Use the 'm' key to select the treatment on the right</p></div>,90.0,,,html-keyboard-response,103,453187,0.0-5.0-2.32,oEFhKj3D,Self-control,Self-control,75,,,right,/static/images/stimulus_img33.png,15.0,55.0,30.0,False
104,,,,,,html-keyboard-response,104,453187,0.0-5.0-0.33,oEFhKj3D,Self-control,Self-control,75,True,,,,,,,
105,,<div style='position:fixed;top:47%;left:49%;text-align:center;font-size:60px;'>+</div>,,,,html-keyboard-response,105,454188,0.0-5.0-1.33,oEFhKj3D,Self-control,Self-control,75,,True,,,,,,
106,111.96999999810942,<div style='position:relative; min-width:800px; margin-bottom:360px;top:28.8px;'><div style='margin:auto 0;top:0px;text-align:left;'><p style='text-align:center;font-size: 36px;'>Domain: <strong>Self-control</strong></p><p style='text-align:center;font-size: 18px;'>Chances the treatment...</p><p><div style='display:inline-block;background-color:#ed713a;height:27px; width:40px;margin-right: 5px;'></div><b>Worsens</b> the deficit. The person becomes <b>unable</b> to control their thoughts and impulses.</p><p><div style='display:inline-block;background-color:#808080;height:27px; width:40px;margin-right: 5px;'></div>Has <b>no effect.</b> The person <b>still</b> has some trouble controlling their thoughts and impulses.</p><p><div style='display:inline-block;background-color:#4169e1;height:27px; width:40px;margin-right: 5px;'></div><b>Cures</b> the deficit. The person becomes <b>able</b> to control their thoughts and impulses.</p></div><div style='width:800px;margin-top:50px; margin:0 auto;'><div style='float: left;margin-left:225px;'><div style='border: 3px solid #000000;width: 150px; height:95px; background-color: grey;'><p style='text-align: center;margin-top:23%;font-size:14px;font-weight:bold;'>No Treatment</p></div><p class='small'><strong>Option 1</strong></p></div><div style='float: right;margin-right:225px;'><img style='border: 3px solid #000000; width: 150px; height:95px;' src='/static/images/stimulus_img34.png'></img><p class='small'><strong>Option 2</strong></p></div></div></div><div style='position:relative;margin-block-start:0px;margin-block-end:0px;bottom: 160px;'><p style='margin-block-start:0px;margin-block-end:0px;'>Use the 'z' key to select the treatment on the left</p><p style='margin-block-start:0px;margin-block-end:0px;'>Use the 'm' key to select the treatment on the right</p></div>,77.0,,,html-keyboard-response,106,454302,0.0-5.0-2.33,oEFhKj3D,Self-control,Self-control,75,,,right,/static/images/stimulus_img34.png,20.0,35.0,45.0,True
107,,,,,,html-keyboard-response,107,454302,0.0-5.0-0.34,oEFhKj3D,Self-control,Self-control,75,True,,,,,,,
108,,<div style='position:fixed;top:47%;left:49%;text-align:center;font-size:60px;'>+</div>,,,,html-keyboard-response,108,455303,0.0-5.0-1.34,oEFhKj3D,Self-control,Self-control,75,,True,,,,,,
109,109.76999999547843,<div style='position:relative; min-width:800px; margin-bottom:360px;top:28.8px;'><div style='margin:auto 0;top:0px;text-align:left;'><p style='text-align:center;font-size: 36px;'>Domain: <strong>Self-control</strong></p><p style='text-align:center;font-size: 18px;'>Chances the treatment...</p><p><div style='display:inline-block;background-color:#ed713a;height:27px; width:40px;margin-right: 5px;'></div><b>Worsens</b> the deficit. The person becomes <b>unable</b> to control their thoughts and impulses.</p><p><div style='display:inline-block;background-color:#808080;height:27px; width:40px;margin-right: 5px;'></div>Has <b>no effect.</b> The person <b>still</b> has some trouble controlling their thoughts and impulses.</p><p><div style='display:inline-block;background-color:#4169e1;height:27px; width:40px;margin-right: 5px;'></div><b>Cures</b> the deficit. The person becomes <b>able</b> to control their thoughts and impulses.</p></div><div style='width:800px;margin-top:50px; margin:0 auto;'><div style='float: left;margin-left:225px;'><div style='border: 3px solid #000000;width: 150px; height:95px; background-color: grey;'><p style='text-align: center;margin-top:23%;font-size:14px;font-weight:bold;'>No Treatment</p></div><p class='small'><strong>Option 1</strong></p></div><div style='float: right;margin-right:225px;'><img style='border: 3px solid #000000; width: 150px; height:95px;' src='/static/images/stimulus_img35.png'></img><p class='small'><strong>Option 2</strong></p></div></div></div><div style='position:relative;margin-block-start:0px;margin-block-end:0px;bottom: 160px;'><p style='margin-block-start:0px;margin-block-end:0px;'>Use the 'z' key to select the treatment on the left</p><p style='margin-block-start:0px;margin-block-end:0px;'>Use the 'm' key to select the treatment on the right</p></div>,90.0,,,html-keyboard-response,109,455415,0.0-5.0-2.34,oEFhKj3D,Self-control,Self-control,75,,,right,/static/images/stimulus_img35.png,70.0,25.0,5.0,False
110,,,,,,html-keyboard-response,110,455415,0.0-5.0-0.35,oEFhKj3D,Self-control,Self-control,75,True,,,,,,,
111,,<div style='position:fixed;top:47%;left:49%;text-align:center;font-size:60px;'>+</div>,,,,html-keyboard-response,111,456416,0.0-5.0-1.35,oEFhKj3D,Self-control,Self-control,75,,True,,,,,,
112,102.20500000286847,<div style='position:relative; min-width:800px; margin-bottom:360px;top:28.8px;'><div style='margin:auto 0;top:0px;text-align:left;'><p style='text-align:center;font-size: 36px;'>Domain: <strong>Self-control</strong></p><p style='text-align:center;font-size: 18px;'>Chances the treatment...</p><p><div style='display:inline-block;background-color:#ed713a;height:27px; width:40px;margin-right: 5px;'></div><b>Worsens</b> the deficit. The person becomes <b>unable</b> to control their thoughts and impulses.</p><p><div style='display:inline-block;background-color:#808080;height:27px; width:40px;margin-right: 5px;'></div>Has <b>no effect.</b> The person <b>still</b> has some trouble controlling their thoughts and impulses.</p><p><div style='display:inline-block;background-color:#4169e1;height:27px; width:40px;margin-right: 5px;'></div><b>Cures</b> the deficit. The person becomes <b>able</b> to control their thoughts and impulses.</p></div><div style='width:800px;margin-top:50px;margin: 0 auto;'><div style='float: left;margin-left:225px;'><img style='border: 3px solid #000000; width: 150px; height:95px;' src='/static/images/stimulus_img36.png'></img><p class='small'><strong>Option 1</strong></p></div><div style='float: right;margin-right:225px;'><div style=' width: 150px; height:95px; border: 3px solid #000000; background-color: grey;'><p style='text-align: center; margin-top:23%;font-size:14px;font-weight:bold;'>No treatment</p></div><p class='small'><strong>Option 2</strong></p></div></div></div><div style='position:relative;margin-block-start:0px;margin-block-end:0px;bottom: 160px;'><p style='margin-block-start:0px;margin-block-end:0px;'>Use the 'z' key to select the treatment on the left</p><p style='margin-block-start:0px;margin-block-end:0px;'>Use the 'm' key to select the treatment on the right</p></div>,77.0,,,html-keyboard-response,112,456520,0.0-5.0-2.35,oEFhKj3D,Self-control,Self-control,75,,,left,/static/images/stimulus_img36.png,35.0,40.0,25.0,False
113,,,,,,html-keyboard-response,113,456520,0.0-5.0-0.36,oEFhKj3D,Self-control,Self-control,75,True,,,,,,,
114,,<div style='position:fixed;top:47%;left:49%;text-align:center;font-size:60px;'>+</div>,,,,html-keyboard-response,114,457521,0.0-5.0-1.36,oEFhKj3D,Self-control,Self-control,75,,True,,,,,,
115,661.1300000076881,<div style='position:relative; min-width:800px; margin-bottom:360px;top:28.8px;'><div style='margin:auto 0;top:0px;text-align:left;'><p style='text-align:center;font-size: 36px;'>Domain: <strong>Self-control</strong></p><p style='text-align:center;font-size: 18px;'>Chances the treatment...</p><p><div style='display:inline-block;background-color:#ed713a;height:27px; width:40px;margin-right: 5px;'></div><b>Worsens</b> the deficit. The person becomes <b>unable</b> to control their thoughts and impulses.</p><p><div style='display:inline-block;background-color:#808080;height:27px; width:40px;margin-right: 5px;'></div>Has <b>no effect.</b> The person <b>still</b> has some trouble controlling their thoughts and impulses.</p><p><div style='display:inline-block;background-color:#4169e1;height:27px; width:40px;margin-right: 5px;'></div><b>Cures</b> the deficit. The person becomes <b>able</b> to control their thoughts and impulses.</p></div><div style='width:800px;margin-top:50px; margin:0 auto;'><div style='float: left;margin-left:225px;'><div style='border: 3px solid #000000;width: 150px; height:95px; background-color: grey;'><p style='text-align: center;margin-top:23%;font-size:14px;font-weight:bold;'>No Treatment</p></div><p class='small'><strong>Option 1</strong></p></div><div style='float: right;margin-right:225px;'><img style='border: 3px solid #000000; width: 150px; height:95px;' src='/static/images/stimulus_img37.png'></img><p class='small'><strong>Option 2</strong></p></div></div></div><div style='position:relative;margin-block-start:0px;margin-block-end:0px;bottom: 160px;'><p style='margin-block-start:0px;margin-block-end:0px;'>Use the 'z' key to select the treatment on the left</p><p style='margin-block-start:0px;margin-block-end:0px;'>Use the 'm' key to select the treatment on the right</p></div>,90.0,,,html-keyboard-response,115,458184,0.0-5.0-2.36,oEFhKj3D,Self-control,Self-control,75,,,right,/static/images/stimulus_img37.png,40.0,35.0,25.0,False
116,,,,,,html-keyboard-response,116,458185,0.0-5.0-0.37,oEFhKj3D,Self-control,Self-control,75,True,,,,,,,
117,,<div style='position:fixed;top:47%;left:49%;text-align:center;font-size:60px;'>+</div>,,,,html-keyboard-response,117,459186,0.0-5.0-1.37,oEFhKj3D,Self-control,Self-control,75,,True,,,,,,
118,144.9049999937415,<div style='position:relative; min-width:800px; margin-bottom:360px;top:28.8px;'><div style='margin:auto 0;top:0px;text-align:left;'><p style='text-align:center;font-size: 36px;'>Domain: <strong>Self-control</strong></p><p style='text-align:center;font-size: 18px;'>Chances the treatment...</p><p><div style='display:inline-block;background-color:#ed713a;height:27px; width:40px;margin-right: 5px;'></div><b>Worsens</b> the deficit. The person becomes <b>unable</b> to control their thoughts and impulses.</p><p><div style='display:inline-block;background-color:#808080;height:27px; width:40px;margin-right: 5px;'></div>Has <b>no effect.</b> The person <b>still</b> has some trouble controlling their thoughts and impulses.</p><p><div style='display:inline-block;background-color:#4169e1;height:27px; width:40px;margin-right: 5px;'></div><b>Cures</b> the deficit. The person becomes <b>able</b> to control their thoughts and impulses.</p></div><div style='width:800px;margin-top:50px;margin: 0 auto;'><div style='float: left;margin-left:225px;'><img style='border: 3px solid #000000; width: 150px; height:95px;' src='/static/images/stimulus_img38.png'></img><p class='small'><strong>Option 1</strong></p></div><div style='float: right;margin-right:225px;'><div style=' width: 150px; height:95px; border: 3px solid #000000; background-color: grey;'><p style='text-align: center; margin-top:23%;font-size:14px;font-weight:bold;'>No treatment</p></div><p class='small'><strong>Option 2</strong></p></div></div></div><div style='position:relative;margin-block-start:0px;margin-block-end:0px;bottom: 160px;'><p style='margin-block-start:0px;margin-block-end:0px;'>Use the 'z' key to select the treatment on the left</p><p style='margin-block-start:0px;margin-block-end:0px;'>Use the 'm' key to select the treatment on the right</p></div>,77.0,,,html-keyboard-response,118,459332,0.0-5.0-2.37,oEFhKj3D,Self-control,Self-control,75,,,left,/static/images/stimulus_img38.png,65.0,10.0,25.0,False
119,,,,,,html-keyboard-response,119,459333,0.0-5.0-0.38,oEFhKj3D,Self-control,Self-control,75,True,,,,,,,
120,,<div style='position:fixed;top:47%;left:49%;text-align:center;font-size:60px;'>+</div>,,,,html-keyboard-response,120,460334,0.0-5.0-1.38,oEFhKj3D,Self-control,Self-control,75,,True,,,,,,
