"","user_id","condition","total_trials","risk","gain","no_effect","experimental_treatment_selected","key_press","rt","ratio","Extraversion","Agreeableness","Conscientiousness","Negative_Emotionality","Open_Mindedness","Harm","Fairness","Loyalty","Athority","Sancticy","PerspectiveTaking","Fantasy","EmpathicConcern","PersonalDistress","POWER","ACHIEVEMENT","HEDONISM","STIMULATION","SELF.DIRECTION","UNIVERSALISM","BENEVOLENCE","TRADITION","CONFORMITY","SECURITY","Lying","Assasination","Torture","Murder","Stealing","ForcedSterilization","SNS.total","SNS.ability","SNS.preference","republican","democrat","independent","conservative","liberal","sex","age_4","race_ethnicity","education","ReligionRaised","ReligionNow","Religiosity","Spirituality","AttendChurch","ReligiousActivity","meditation","RelationshipStatus","Income","Major","YearOfEducation","EmploymentStatus","Political_Party","HumanMind","Optimize","trial_index"
"1","01rSsifR","Mood",75,40,10,50,"No to treatment",77,738.004999999248,0.25,39,37,38,39,43,23,24,13,20,18,28,26,25,9,4,7,7,6,4,5,7,4,6,7,2,1,1,1,1,2,4.625,4.5,4.75,4,5,6,3,5,"2",29,1,2,1,1,2,3,3,6,4,2,"41000","Business Management","15","Project Manager - Information",1,1,0,"1"
"2","01rSsifR","Mood",75,35,30,35,"No to treatment",90,946.24499999918,0.857142857142857,39,37,38,39,43,23,24,13,20,18,28,26,25,9,4,7,7,6,4,5,7,4,6,7,2,1,1,1,1,2,4.625,4.5,4.75,4,5,6,3,5,"2",29,1,2,1,1,2,3,3,6,4,2,"41000","Business Management","15","Project Manager - Information",1,1,0,"2"
"3","01rSsifR","Mood",75,25,35,40,"Yes to treatment",90,5473.42000000208,1.4,39,37,38,39,43,23,24,13,20,18,28,26,25,9,4,7,7,6,4,5,7,4,6,7,2,1,1,1,1,2,4.625,4.5,4.75,4,5,6,3,5,"2",29,1,2,1,1,2,3,3,6,4,2,"41000","Business Management","15","Project Manager - Information",1,1,0,"3"
"4","01rSsifR","Mood",75,85,5,10,"No to treatment",90,690.744999999879,0.0588235294117647,39,37,38,39,43,23,24,13,20,18,28,26,25,9,4,7,7,6,4,5,7,4,6,7,2,1,1,1,1,2,4.625,4.5,4.75,4,5,6,3,5,"2",29,1,2,1,1,2,3,3,6,4,2,"41000","Business Management","15","Project Manager - Information",1,1,0,"4"
"5","01rSsifR","Mood",75,10,45,45,"Yes to treatment",90,994.17000000173,4.5,39,37,38,39,43,23,24,13,20,18,28,26,25,9,4,7,7,6,4,5,7,4,6,7,2,1,1,1,1,2,4.625,4.5,4.75,4,5,6,3,5,"2",29,1,2,1,1,2,3,3,6,4,2,"41000","Business Management","15","Project Manager - Information",1,1,0,"5"
"6","01rSsifR","Mood",75,75,20,5,"No to treatment",77,945.255000002362,0.266666666666667,39,37,38,39,43,23,24,13,20,18,28,26,25,9,4,7,7,6,4,5,7,4,6,7,2,1,1,1,1,2,4.625,4.5,4.75,4,5,6,3,5,"2",29,1,2,1,1,2,3,3,6,4,2,"41000","Business Management","15","Project Manager - Information",1,1,0,"6"
"7","01rSsifR","Mood",75,25,15,60,"No to treatment",77,944.754999996803,0.6,39,37,38,39,43,23,24,13,20,18,28,26,25,9,4,7,7,6,4,5,7,4,6,7,2,1,1,1,1,2,4.625,4.5,4.75,4,5,6,3,5,"2",29,1,2,1,1,2,3,3,6,4,2,"41000","Business Management","15","Project Manager - Information",1,1,0,"7"
"8","01rSsifR","Mood",75,30,55,15,"Yes to treatment",90,576.320000000123,1.83333333333333,39,37,38,39,43,23,24,13,20,18,28,26,25,9,4,7,7,6,4,5,7,4,6,7,2,1,1,1,1,2,4.625,4.5,4.75,4,5,6,3,5,"2",29,1,2,1,1,2,3,3,6,4,2,"41000","Business Management","15","Project Manager - Information",1,1,0,"8"
"9","01rSsifR","Mood",75,20,35,45,"No to treatment",77,5776.44500000315,1.75,39,37,38,39,43,23,24,13,20,18,28,26,25,9,4,7,7,6,4,5,7,4,6,7,2,1,1,1,1,2,4.625,4.5,4.75,4,5,6,3,5,"2",29,1,2,1,1,2,3,3,6,4,2,"41000","Business Management","15","Project Manager - Information",1,1,0,"9"
"10","01rSsifR","Mood",75,10,5,85,"No to treatment",90,1602.04500000327,0.5,39,37,38,39,43,23,24,13,20,18,28,26,25,9,4,7,7,6,4,5,7,4,6,7,2,1,1,1,1,2,4.625,4.5,4.75,4,5,6,3,5,"2",29,1,2,1,1,2,3,3,6,4,2,"41000","Business Management","15","Project Manager - Information",1,1,0,"10"
"11","01rSsifR","Mood",75,25,15,60,"No to treatment",90,1121.24500000209,0.6,39,37,38,39,43,23,24,13,20,18,28,26,25,9,4,7,7,6,4,5,7,4,6,7,2,1,1,1,1,2,4.625,4.5,4.75,4,5,6,3,5,"2",29,1,2,1,1,2,3,3,6,4,2,"41000","Business Management","15","Project Manager - Information",1,1,0,"11"
"12","01rSsifR","Mood",75,5,65,30,"Yes to treatment",77,929.390000001149,13,39,37,38,39,43,23,24,13,20,18,28,26,25,9,4,7,7,6,4,5,7,4,6,7,2,1,1,1,1,2,4.625,4.5,4.75,4,5,6,3,5,"2",29,1,2,1,1,2,3,3,6,4,2,"41000","Business Management","15","Project Manager - Information",1,1,0,"12"
"13","01rSsifR","Mood",75,30,40,30,"Yes to treatment",77,1009.8399999988,1.33333333333333,39,37,38,39,43,23,24,13,20,18,28,26,25,9,4,7,7,6,4,5,7,4,6,7,2,1,1,1,1,2,4.625,4.5,4.75,4,5,6,3,5,"2",29,1,2,1,1,2,3,3,6,4,2,"41000","Business Management","15","Project Manager - Information",1,1,0,"13"
"14","01rSsifR","Mood",75,40,35,25,"No to treatment",77,2577.82499999666,0.875,39,37,38,39,43,23,24,13,20,18,28,26,25,9,4,7,7,6,4,5,7,4,6,7,2,1,1,1,1,2,4.625,4.5,4.75,4,5,6,3,5,"2",29,1,2,1,1,2,3,3,6,4,2,"41000","Business Management","15","Project Manager - Information",1,1,0,"14"
"15","01rSsifR","Mood",75,70,20,10,"No to treatment",77,673.77999999735,0.285714285714286,39,37,38,39,43,23,24,13,20,18,28,26,25,9,4,7,7,6,4,5,7,4,6,7,2,1,1,1,1,2,4.625,4.5,4.75,4,5,6,3,5,"2",29,1,2,1,1,2,3,3,6,4,2,"41000","Business Management","15","Project Manager - Information",1,1,0,"15"
"16","01rSsifR","Mood",75,30,20,50,"No to treatment",77,801.445000000967,0.666666666666667,39,37,38,39,43,23,24,13,20,18,28,26,25,9,4,7,7,6,4,5,7,4,6,7,2,1,1,1,1,2,4.625,4.5,4.75,4,5,6,3,5,"2",29,1,2,1,1,2,3,3,6,4,2,"41000","Business Management","15","Project Manager - Information",1,1,0,"16"
"17","01rSsifR","Mood",75,65,30,5,"No to treatment",90,994.02000000191,0.461538461538462,39,37,38,39,43,23,24,13,20,18,28,26,25,9,4,7,7,6,4,5,7,4,6,7,2,1,1,1,1,2,4.625,4.5,4.75,4,5,6,3,5,"2",29,1,2,1,1,2,3,3,6,4,2,"41000","Business Management","15","Project Manager - Information",1,1,0,"17"
"18","01rSsifR","Mood",75,15,10,75,"No to treatment",90,1393.70500000229,0.666666666666667,39,37,38,39,43,23,24,13,20,18,28,26,25,9,4,7,7,6,4,5,7,4,6,7,2,1,1,1,1,2,4.625,4.5,4.75,4,5,6,3,5,"2",29,1,2,1,1,2,3,3,6,4,2,"41000","Business Management","15","Project Manager - Information",1,1,0,"18"
"19","01rSsifR","Mood",75,75,15,10,"No to treatment",77,5320.27000000016,0.2,39,37,38,39,43,23,24,13,20,18,28,26,25,9,4,7,7,6,4,5,7,4,6,7,2,1,1,1,1,2,4.625,4.5,4.75,4,5,6,3,5,"2",29,1,2,1,1,2,3,3,6,4,2,"41000","Business Management","15","Project Manager - Information",1,1,0,"19"
"20","01rSsifR","Mood",75,65,25,10,"No to treatment",77,529.495000002498,0.384615384615385,39,37,38,39,43,23,24,13,20,18,28,26,25,9,4,7,7,6,4,5,7,4,6,7,2,1,1,1,1,2,4.625,4.5,4.75,4,5,6,3,5,"2",29,1,2,1,1,2,3,3,6,4,2,"41000","Business Management","15","Project Manager - Information",1,1,0,"20"
"21","01rSsifR","Mood",75,65,15,20,"No to treatment",90,769.885000001523,0.230769230769231,39,37,38,39,43,23,24,13,20,18,28,26,25,9,4,7,7,6,4,5,7,4,6,7,2,1,1,1,1,2,4.625,4.5,4.75,4,5,6,3,5,"2",29,1,2,1,1,2,3,3,6,4,2,"41000","Business Management","15","Project Manager - Information",1,1,0,"21"
"22","01rSsifR","Mood",75,20,75,5,"Yes to treatment",77,2176.21999999756,3.75,39,37,38,39,43,23,24,13,20,18,28,26,25,9,4,7,7,6,4,5,7,4,6,7,2,1,1,1,1,2,4.625,4.5,4.75,4,5,6,3,5,"2",29,1,2,1,1,2,3,3,6,4,2,"41000","Business Management","15","Project Manager - Information",1,1,0,"22"
"23","01rSsifR","Mood",75,25,35,40,"Yes to treatment",77,994.064999998896,1.4,39,37,38,39,43,23,24,13,20,18,28,26,25,9,4,7,7,6,4,5,7,4,6,7,2,1,1,1,1,2,4.625,4.5,4.75,4,5,6,3,5,"2",29,1,2,1,1,2,3,3,6,4,2,"41000","Business Management","15","Project Manager - Information",1,1,0,"23"
"24","01rSsifR","Mood",75,80,15,5,"No to treatment",90,833.630000000994,0.1875,39,37,38,39,43,23,24,13,20,18,28,26,25,9,4,7,7,6,4,5,7,4,6,7,2,1,1,1,1,2,4.625,4.5,4.75,4,5,6,3,5,"2",29,1,2,1,1,2,3,3,6,4,2,"41000","Business Management","15","Project Manager - Information",1,1,0,"24"
"25","01rSsifR","Mood",75,50,15,35,"No to treatment",77,961.880000002566,0.3,39,37,38,39,43,23,24,13,20,18,28,26,25,9,4,7,7,6,4,5,7,4,6,7,2,1,1,1,1,2,4.625,4.5,4.75,4,5,6,3,5,"2",29,1,2,1,1,2,3,3,6,4,2,"41000","Business Management","15","Project Manager - Information",1,1,0,"25"
"26","01rSsifR","Mood",75,30,40,30,"Yes to treatment",77,1393.39499999915,1.33333333333333,39,37,38,39,43,23,24,13,20,18,28,26,25,9,4,7,7,6,4,5,7,4,6,7,2,1,1,1,1,2,4.625,4.5,4.75,4,5,6,3,5,"2",29,1,2,1,1,2,3,3,6,4,2,"41000","Business Management","15","Project Manager - Information",1,1,0,"26"
"27","01rSsifR","Mood",75,80,15,5,"No to treatment",90,969.989999997779,0.1875,39,37,38,39,43,23,24,13,20,18,28,26,25,9,4,7,7,6,4,5,7,4,6,7,2,1,1,1,1,2,4.625,4.5,4.75,4,5,6,3,5,"2",29,1,2,1,1,2,3,3,6,4,2,"41000","Business Management","15","Project Manager - Information",1,1,0,"27"
"28","01rSsifR","Mood",75,10,70,20,"Yes to treatment",77,945.475000000442,7,39,37,38,39,43,23,24,13,20,18,28,26,25,9,4,7,7,6,4,5,7,4,6,7,2,1,1,1,1,2,4.625,4.5,4.75,4,5,6,3,5,"2",29,1,2,1,1,2,3,3,6,4,2,"41000","Business Management","15","Project Manager - Information",1,1,0,"28"
"29","01rSsifR","Mood",75,30,25,45,"No to treatment",77,865.819999999076,0.833333333333333,39,37,38,39,43,23,24,13,20,18,28,26,25,9,4,7,7,6,4,5,7,4,6,7,2,1,1,1,1,2,4.625,4.5,4.75,4,5,6,3,5,"2",29,1,2,1,1,2,3,3,6,4,2,"41000","Business Management","15","Project Manager - Information",1,1,0,"29"
"30","01rSsifR","Mood",75,55,25,20,"No to treatment",77,898.26499999981,0.454545454545455,39,37,38,39,43,23,24,13,20,18,28,26,25,9,4,7,7,6,4,5,7,4,6,7,2,1,1,1,1,2,4.625,4.5,4.75,4,5,6,3,5,"2",29,1,2,1,1,2,3,3,6,4,2,"41000","Business Management","15","Project Manager - Information",1,1,0,"30"
"31","01rSsifR","Mood",75,35,40,25,"Yes to treatment",77,849.040000000969,1.14285714285714,39,37,38,39,43,23,24,13,20,18,28,26,25,9,4,7,7,6,4,5,7,4,6,7,2,1,1,1,1,2,4.625,4.5,4.75,4,5,6,3,5,"2",29,1,2,1,1,2,3,3,6,4,2,"41000","Business Management","15","Project Manager - Information",1,1,0,"31"
"32","01rSsifR","Mood",75,35,55,10,"Yes to treatment",77,1041.73499999888,1.57142857142857,39,37,38,39,43,23,24,13,20,18,28,26,25,9,4,7,7,6,4,5,7,4,6,7,2,1,1,1,1,2,4.625,4.5,4.75,4,5,6,3,5,"2",29,1,2,1,1,2,3,3,6,4,2,"41000","Business Management","15","Project Manager - Information",1,1,0,"32"
"33","01rSsifR","Mood",75,15,30,55,"Yes to treatment",77,1281.52999999656,2,39,37,38,39,43,23,24,13,20,18,28,26,25,9,4,7,7,6,4,5,7,4,6,7,2,1,1,1,1,2,4.625,4.5,4.75,4,5,6,3,5,"2",29,1,2,1,1,2,3,3,6,4,2,"41000","Business Management","15","Project Manager - Information",1,1,0,"33"
"34","01rSsifR","Mood",75,35,20,45,"No to treatment",90,1058.10000000201,0.571428571428571,39,37,38,39,43,23,24,13,20,18,28,26,25,9,4,7,7,6,4,5,7,4,6,7,2,1,1,1,1,2,4.625,4.5,4.75,4,5,6,3,5,"2",29,1,2,1,1,2,3,3,6,4,2,"41000","Business Management","15","Project Manager - Information",1,1,0,"34"
"35","01rSsifR","Mood",75,75,5,20,"No to treatment",90,1058.21500000093,0.0666666666666667,39,37,38,39,43,23,24,13,20,18,28,26,25,9,4,7,7,6,4,5,7,4,6,7,2,1,1,1,1,2,4.625,4.5,4.75,4,5,6,3,5,"2",29,1,2,1,1,2,3,3,6,4,2,"41000","Business Management","15","Project Manager - Information",1,1,0,"35"
"36","01rSsifR","Mood",75,85,5,10,"No to treatment",77,640.49999999773,0.0588235294117647,39,37,38,39,43,23,24,13,20,18,28,26,25,9,4,7,7,6,4,5,7,4,6,7,2,1,1,1,1,2,4.625,4.5,4.75,4,5,6,3,5,"2",29,1,2,1,1,2,3,3,6,4,2,"41000","Business Management","15","Project Manager - Information",1,1,0,"36"
"37","01rSsifR","Mood",75,80,15,5,"No to treatment",77,657.070000001113,0.1875,39,37,38,39,43,23,24,13,20,18,28,26,25,9,4,7,7,6,4,5,7,4,6,7,2,1,1,1,1,2,4.625,4.5,4.75,4,5,6,3,5,"2",29,1,2,1,1,2,3,3,6,4,2,"41000","Business Management","15","Project Manager - Information",1,1,0,"37"
"38","01rSsifR","Mood",75,85,5,10,"No to treatment",77,601.350000000792,0.0588235294117647,39,37,38,39,43,23,24,13,20,18,28,26,25,9,4,7,7,6,4,5,7,4,6,7,2,1,1,1,1,2,4.625,4.5,4.75,4,5,6,3,5,"2",29,1,2,1,1,2,3,3,6,4,2,"41000","Business Management","15","Project Manager - Information",1,1,0,"38"
"39","01rSsifR","Mood",75,60,10,30,"No to treatment",90,737.744999998511,0.166666666666667,39,37,38,39,43,23,24,13,20,18,28,26,25,9,4,7,7,6,4,5,7,4,6,7,2,1,1,1,1,2,4.625,4.5,4.75,4,5,6,3,5,"2",29,1,2,1,1,2,3,3,6,4,2,"41000","Business Management","15","Project Manager - Information",1,1,0,"39"
"40","01rSsifR","Mood",75,85,5,10,"No to treatment",77,1080.81500000117,0.0588235294117647,39,37,38,39,43,23,24,13,20,18,28,26,25,9,4,7,7,6,4,5,7,4,6,7,2,1,1,1,1,2,4.625,4.5,4.75,4,5,6,3,5,"2",29,1,2,1,1,2,3,3,6,4,2,"41000","Business Management","15","Project Manager - Information",1,1,0,"40"
"41","01rSsifR","Mood",75,30,55,15,"Yes to treatment",90,1409.40000000046,1.83333333333333,39,37,38,39,43,23,24,13,20,18,28,26,25,9,4,7,7,6,4,5,7,4,6,7,2,1,1,1,1,2,4.625,4.5,4.75,4,5,6,3,5,"2",29,1,2,1,1,2,3,3,6,4,2,"41000","Business Management","15","Project Manager - Information",1,1,0,"41"
"42","01rSsifR","Mood",75,35,5,60,"No to treatment",90,850.51999999996,0.142857142857143,39,37,38,39,43,23,24,13,20,18,28,26,25,9,4,7,7,6,4,5,7,4,6,7,2,1,1,1,1,2,4.625,4.5,4.75,4,5,6,3,5,"2",29,1,2,1,1,2,3,3,6,4,2,"41000","Business Management","15","Project Manager - Information",1,1,0,"42"
"43","01rSsifR","Mood",75,45,25,30,"No to treatment",90,1505.70000000153,0.555555555555556,39,37,38,39,43,23,24,13,20,18,28,26,25,9,4,7,7,6,4,5,7,4,6,7,2,1,1,1,1,2,4.625,4.5,4.75,4,5,6,3,5,"2",29,1,2,1,1,2,3,3,6,4,2,"41000","Business Management","15","Project Manager - Information",1,1,0,"43"
"44","01rSsifR","Mood",75,25,15,60,"No to treatment",90,2098.34000000046,0.6,39,37,38,39,43,23,24,13,20,18,28,26,25,9,4,7,7,6,4,5,7,4,6,7,2,1,1,1,1,2,4.625,4.5,4.75,4,5,6,3,5,"2",29,1,2,1,1,2,3,3,6,4,2,"41000","Business Management","15","Project Manager - Information",1,1,0,"44"
"45","01rSsifR","Mood",75,5,65,30,"Yes to treatment",77,1089.8449999986,13,39,37,38,39,43,23,24,13,20,18,28,26,25,9,4,7,7,6,4,5,7,4,6,7,2,1,1,1,1,2,4.625,4.5,4.75,4,5,6,3,5,"2",29,1,2,1,1,2,3,3,6,4,2,"41000","Business Management","15","Project Manager - Information",1,1,0,"45"
"46","01rSsifR","Mood",75,15,75,10,"Yes to treatment",77,1009.45999999749,5,39,37,38,39,43,23,24,13,20,18,28,26,25,9,4,7,7,6,4,5,7,4,6,7,2,1,1,1,1,2,4.625,4.5,4.75,4,5,6,3,5,"2",29,1,2,1,1,2,3,3,6,4,2,"41000","Business Management","15","Project Manager - Information",1,1,0,"46"
"47","01rSsifR","Mood",75,45,50,5,"No to treatment",90,3474.27500000049,1.11111111111111,39,37,38,39,43,23,24,13,20,18,28,26,25,9,4,7,7,6,4,5,7,4,6,7,2,1,1,1,1,2,4.625,4.5,4.75,4,5,6,3,5,"2",29,1,2,1,1,2,3,3,6,4,2,"41000","Business Management","15","Project Manager - Information",1,1,0,"47"
"48","01rSsifR","Mood",75,25,65,10,"Yes to treatment",90,801.634999999835,2.6,39,37,38,39,43,23,24,13,20,18,28,26,25,9,4,7,7,6,4,5,7,4,6,7,2,1,1,1,1,2,4.625,4.5,4.75,4,5,6,3,5,"2",29,1,2,1,1,2,3,3,6,4,2,"41000","Business Management","15","Project Manager - Information",1,1,0,"48"
"49","01rSsifR","Mood",75,75,20,5,"No to treatment",90,706.154999999853,0.266666666666667,39,37,38,39,43,23,24,13,20,18,28,26,25,9,4,7,7,6,4,5,7,4,6,7,2,1,1,1,1,2,4.625,4.5,4.75,4,5,6,3,5,"2",29,1,2,1,1,2,3,3,6,4,2,"41000","Business Management","15","Project Manager - Information",1,1,0,"49"
"50","01rSsifR","Mood",75,80,5,15,"No to treatment",77,640.995000001567,0.0625,39,37,38,39,43,23,24,13,20,18,28,26,25,9,4,7,7,6,4,5,7,4,6,7,2,1,1,1,1,2,4.625,4.5,4.75,4,5,6,3,5,"2",29,1,2,1,1,2,3,3,6,4,2,"41000","Business Management","15","Project Manager - Information",1,1,0,"50"
"51","01rSsifR","Mood",75,60,5,35,"No to treatment",77,753.759999999602,0.0833333333333333,39,37,38,39,43,23,24,13,20,18,28,26,25,9,4,7,7,6,4,5,7,4,6,7,2,1,1,1,1,2,4.625,4.5,4.75,4,5,6,3,5,"2",29,1,2,1,1,2,3,3,6,4,2,"41000","Business Management","15","Project Manager - Information",1,1,0,"51"
"52","01rSsifR","Mood",75,40,50,10,"No to treatment",77,1345.57500000298,1.25,39,37,38,39,43,23,24,13,20,18,28,26,25,9,4,7,7,6,4,5,7,4,6,7,2,1,1,1,1,2,4.625,4.5,4.75,4,5,6,3,5,"2",29,1,2,1,1,2,3,3,6,4,2,"41000","Business Management","15","Project Manager - Information",1,1,0,"52"
"53","01rSsifR","Mood",75,45,20,35,"No to treatment",77,881.844999999885,0.444444444444444,39,37,38,39,43,23,24,13,20,18,28,26,25,9,4,7,7,6,4,5,7,4,6,7,2,1,1,1,1,2,4.625,4.5,4.75,4,5,6,3,5,"2",29,1,2,1,1,2,3,3,6,4,2,"41000","Business Management","15","Project Manager - Information",1,1,0,"53"
"54","01rSsifR","Mood",75,5,90,5,"Yes to treatment",90,769.834999999148,18,39,37,38,39,43,23,24,13,20,18,28,26,25,9,4,7,7,6,4,5,7,4,6,7,2,1,1,1,1,2,4.625,4.5,4.75,4,5,6,3,5,"2",29,1,2,1,1,2,3,3,6,4,2,"41000","Business Management","15","Project Manager - Information",1,1,0,"54"
"55","01rSsifR","Mood",75,25,40,35,"Yes to treatment",90,1202.62000000002,1.6,39,37,38,39,43,23,24,13,20,18,28,26,25,9,4,7,7,6,4,5,7,4,6,7,2,1,1,1,1,2,4.625,4.5,4.75,4,5,6,3,5,"2",29,1,2,1,1,2,3,3,6,4,2,"41000","Business Management","15","Project Manager - Information",1,1,0,"55"
"56","01rSsifR","Mood",75,80,5,15,"No to treatment",90,594.010000000708,0.0625,39,37,38,39,43,23,24,13,20,18,28,26,25,9,4,7,7,6,4,5,7,4,6,7,2,1,1,1,1,2,4.625,4.5,4.75,4,5,6,3,5,"2",29,1,2,1,1,2,3,3,6,4,2,"41000","Business Management","15","Project Manager - Information",1,1,0,"56"
"57","01rSsifR","Mood",75,75,15,10,"No to treatment",77,976.265000001149,0.2,39,37,38,39,43,23,24,13,20,18,28,26,25,9,4,7,7,6,4,5,7,4,6,7,2,1,1,1,1,2,4.625,4.5,4.75,4,5,6,3,5,"2",29,1,2,1,1,2,3,3,6,4,2,"41000","Business Management","15","Project Manager - Information",1,1,0,"57"
"58","01rSsifR","Mood",75,90,5,5,"No to treatment",77,722.444999999425,0.0555555555555556,39,37,38,39,43,23,24,13,20,18,28,26,25,9,4,7,7,6,4,5,7,4,6,7,2,1,1,1,1,2,4.625,4.5,4.75,4,5,6,3,5,"2",29,1,2,1,1,2,3,3,6,4,2,"41000","Business Management","15","Project Manager - Information",1,1,0,"58"
"59","01rSsifR","Mood",75,75,5,20,"No to treatment",77,753.154999998515,0.0666666666666667,39,37,38,39,43,23,24,13,20,18,28,26,25,9,4,7,7,6,4,5,7,4,6,7,2,1,1,1,1,2,4.625,4.5,4.75,4,5,6,3,5,"2",29,1,2,1,1,2,3,3,6,4,2,"41000","Business Management","15","Project Manager - Information",1,1,0,"59"
"60","01rSsifR","Mood",75,70,5,25,"No to treatment",77,660.195000000414,0.0714285714285714,39,37,38,39,43,23,24,13,20,18,28,26,25,9,4,7,7,6,4,5,7,4,6,7,2,1,1,1,1,2,4.625,4.5,4.75,4,5,6,3,5,"2",29,1,2,1,1,2,3,3,6,4,2,"41000","Business Management","15","Project Manager - Information",1,1,0,"60"
"61","01rSsifR","Mood",75,5,45,50,"Yes to treatment",90,737.975000000035,9,39,37,38,39,43,23,24,13,20,18,28,26,25,9,4,7,7,6,4,5,7,4,6,7,2,1,1,1,1,2,4.625,4.5,4.75,4,5,6,3,5,"2",29,1,2,1,1,2,3,3,6,4,2,"41000","Business Management","15","Project Manager - Information",1,1,0,"61"
"62","01rSsifR","Mood",75,80,15,5,"No to treatment",90,722.050000000279,0.1875,39,37,38,39,43,23,24,13,20,18,28,26,25,9,4,7,7,6,4,5,7,4,6,7,2,1,1,1,1,2,4.625,4.5,4.75,4,5,6,3,5,"2",29,1,2,1,1,2,3,3,6,4,2,"41000","Business Management","15","Project Manager - Information",1,1,0,"62"
"63","01rSsifR","Mood",75,80,5,15,"No to treatment",90,714.359999998123,0.0625,39,37,38,39,43,23,24,13,20,18,28,26,25,9,4,7,7,6,4,5,7,4,6,7,2,1,1,1,1,2,4.625,4.5,4.75,4,5,6,3,5,"2",29,1,2,1,1,2,3,3,6,4,2,"41000","Business Management","15","Project Manager - Information",1,1,0,"63"
"64","01rSsifR","Mood",75,50,20,30,"No to treatment",90,882.249999998749,0.4,39,37,38,39,43,23,24,13,20,18,28,26,25,9,4,7,7,6,4,5,7,4,6,7,2,1,1,1,1,2,4.625,4.5,4.75,4,5,6,3,5,"2",29,1,2,1,1,2,3,3,6,4,2,"41000","Business Management","15","Project Manager - Information",1,1,0,"64"
"65","01rSsifR","Mood",75,20,5,75,"No to treatment",77,849.469999997411,0.25,39,37,38,39,43,23,24,13,20,18,28,26,25,9,4,7,7,6,4,5,7,4,6,7,2,1,1,1,1,2,4.625,4.5,4.75,4,5,6,3,5,"2",29,1,2,1,1,2,3,3,6,4,2,"41000","Business Management","15","Project Manager - Information",1,1,0,"65"
"66","01rSsifR","Mood",75,30,20,50,"No to treatment",90,1009.44999999774,0.666666666666667,39,37,38,39,43,23,24,13,20,18,28,26,25,9,4,7,7,6,4,5,7,4,6,7,2,1,1,1,1,2,4.625,4.5,4.75,4,5,6,3,5,"2",29,1,2,1,1,2,3,3,6,4,2,"41000","Business Management","15","Project Manager - Information",1,1,0,"66"
"67","01rSsifR","Mood",75,5,75,20,"Yes to treatment",77,642.015000001295,15,39,37,38,39,43,23,24,13,20,18,28,26,25,9,4,7,7,6,4,5,7,4,6,7,2,1,1,1,1,2,4.625,4.5,4.75,4,5,6,3,5,"2",29,1,2,1,1,2,3,3,6,4,2,"41000","Business Management","15","Project Manager - Information",1,1,0,"67"
"68","01rSsifR","Mood",75,25,45,30,"Yes to treatment",90,881.884999998903,1.8,39,37,38,39,43,23,24,13,20,18,28,26,25,9,4,7,7,6,4,5,7,4,6,7,2,1,1,1,1,2,4.625,4.5,4.75,4,5,6,3,5,"2",29,1,2,1,1,2,3,3,6,4,2,"41000","Business Management","15","Project Manager - Information",1,1,0,"68"
"69","01rSsifR","Mood",75,45,10,45,"No to treatment",77,722.085000001243,0.222222222222222,39,37,38,39,43,23,24,13,20,18,28,26,25,9,4,7,7,6,4,5,7,4,6,7,2,1,1,1,1,2,4.625,4.5,4.75,4,5,6,3,5,"2",29,1,2,1,1,2,3,3,6,4,2,"41000","Business Management","15","Project Manager - Information",1,1,0,"69"
"70","01rSsifR","Mood",75,30,35,35,"Yes to treatment",77,4546.45000000164,1.16666666666667,39,37,38,39,43,23,24,13,20,18,28,26,25,9,4,7,7,6,4,5,7,4,6,7,2,1,1,1,1,2,4.625,4.5,4.75,4,5,6,3,5,"2",29,1,2,1,1,2,3,3,6,4,2,"41000","Business Management","15","Project Manager - Information",1,1,0,"70"
"71","01rSsifR","Mood",75,65,30,5,"No to treatment",77,735.810000001919,0.461538461538462,39,37,38,39,43,23,24,13,20,18,28,26,25,9,4,7,7,6,4,5,7,4,6,7,2,1,1,1,1,2,4.625,4.5,4.75,4,5,6,3,5,"2",29,1,2,1,1,2,3,3,6,4,2,"41000","Business Management","15","Project Manager - Information",1,1,0,"71"
"72","01rSsifR","Mood",75,45,35,20,"No to treatment",90,962.08000000118,0.777777777777778,39,37,38,39,43,23,24,13,20,18,28,26,25,9,4,7,7,6,4,5,7,4,6,7,2,1,1,1,1,2,4.625,4.5,4.75,4,5,6,3,5,"2",29,1,2,1,1,2,3,3,6,4,2,"41000","Business Management","15","Project Manager - Information",1,1,0,"72"
"73","01rSsifR","Mood",75,85,5,10,"No to treatment",77,1057.67500000002,0.0588235294117647,39,37,38,39,43,23,24,13,20,18,28,26,25,9,4,7,7,6,4,5,7,4,6,7,2,1,1,1,1,2,4.625,4.5,4.75,4,5,6,3,5,"2",29,1,2,1,1,2,3,3,6,4,2,"41000","Business Management","15","Project Manager - Information",1,1,0,"73"
"74","01rSsifR","Mood",75,50,35,15,"No to treatment",90,849.764999999024,0.7,39,37,38,39,43,23,24,13,20,18,28,26,25,9,4,7,7,6,4,5,7,4,6,7,2,1,1,1,1,2,4.625,4.5,4.75,4,5,6,3,5,"2",29,1,2,1,1,2,3,3,6,4,2,"41000","Business Management","15","Project Manager - Information",1,1,0,"74"
"75","01rSsifR","Mood",75,65,5,30,"No to treatment",90,1170.61000000103,0.0769230769230769,39,37,38,39,43,23,24,13,20,18,28,26,25,9,4,7,7,6,4,5,7,4,6,7,2,1,1,1,1,2,4.625,4.5,4.75,4,5,6,3,5,"2",29,1,2,1,1,2,3,3,6,4,2,"41000","Business Management","15","Project Manager - Information",1,1,0,"75"
"76","0DeJj31H","Short Term (Working) Memory",75,10,25,65,"Yes to treatment",90,895.349999998871,2.5,45,47,38,37,43,18,21,19,22,20,15,14,16,17,6,7,5,6,7,5,6,5,6,5,2,3,3,2,3,1,4.25,4.25,4.25,4,5,4,5,6,"1",29,4,4,6,6,2,2,3,3,5,3,"25000","Computer","19","software",2,0,1,"1"
"77","0DeJj31H","Short Term (Working) Memory",75,5,70,25,"Yes to treatment",77,685.760000000359,14,45,47,38,37,43,18,21,19,22,20,15,14,16,17,6,7,5,6,7,5,6,5,6,5,2,3,3,2,3,1,4.25,4.25,4.25,4,5,4,5,6,"1",29,4,4,6,6,2,2,3,3,5,3,"25000","Computer","19","software",2,0,1,"2"
"78","0DeJj31H","Short Term (Working) Memory",75,20,65,15,"Yes to treatment",90,5318.48000000173,3.25,45,47,38,37,43,18,21,19,22,20,15,14,16,17,6,7,5,6,7,5,6,5,6,5,2,3,3,2,3,1,4.25,4.25,4.25,4,5,4,5,6,"1",29,4,4,6,6,2,2,3,3,5,3,"25000","Computer","19","software",2,0,1,"3"
"79","0DeJj31H","Short Term (Working) Memory",75,40,30,30,"Yes to treatment",90,675.074999999139,0.75,45,47,38,37,43,18,21,19,22,20,15,14,16,17,6,7,5,6,7,5,6,5,6,5,2,3,3,2,3,1,4.25,4.25,4.25,4,5,4,5,6,"1",29,4,4,6,6,2,2,3,3,5,3,"25000","Computer","19","software",2,0,1,"4"
"80","0DeJj31H","Short Term (Working) Memory",75,65,20,15,"Yes to treatment",77,609.85500000231,0.307692307692308,45,47,38,37,43,18,21,19,22,20,15,14,16,17,6,7,5,6,7,5,6,5,6,5,2,3,3,2,3,1,4.25,4.25,4.25,4,5,4,5,6,"1",29,4,4,6,6,2,2,3,3,5,3,"25000","Computer","19","software",2,0,1,"5"
"81","0DeJj31H","Short Term (Working) Memory",75,50,5,45,"Yes to treatment",90,23156.9850000014,0.1,45,47,38,37,43,18,21,19,22,20,15,14,16,17,6,7,5,6,7,5,6,5,6,5,2,3,3,2,3,1,4.25,4.25,4.25,4,5,4,5,6,"1",29,4,4,6,6,2,2,3,3,5,3,"25000","Computer","19","software",2,0,1,"6"
"82","0DeJj31H","Short Term (Working) Memory",75,20,10,70,"Yes to treatment",90,27908.370000001,0.5,45,47,38,37,43,18,21,19,22,20,15,14,16,17,6,7,5,6,7,5,6,5,6,5,2,3,3,2,3,1,4.25,4.25,4.25,4,5,4,5,6,"1",29,4,4,6,6,2,2,3,3,5,3,"25000","Computer","19","software",2,0,1,"7"
"83","0DeJj31H","Short Term (Working) Memory",75,85,10,5,"Yes to treatment",77,647.639999999199,0.117647058823529,45,47,38,37,43,18,21,19,22,20,15,14,16,17,6,7,5,6,7,5,6,5,6,5,2,3,3,2,3,1,4.25,4.25,4.25,4,5,4,5,6,"1",29,4,4,6,6,2,2,3,3,5,3,"25000","Computer","19","software",2,0,1,"8"
"84","0DeJj31H","Short Term (Working) Memory",75,15,50,35,"Yes to treatment",90,1063.27000000241,3.33333333333333,45,47,38,37,43,18,21,19,22,20,15,14,16,17,6,7,5,6,7,5,6,5,6,5,2,3,3,2,3,1,4.25,4.25,4.25,4,5,4,5,6,"1",29,4,4,6,6,2,2,3,3,5,3,"25000","Computer","19","software",2,0,1,"9"
"85","0DeJj31H","Short Term (Working) Memory",75,50,30,20,"Yes to treatment",90,924.739999998594,0.6,45,47,38,37,43,18,21,19,22,20,15,14,16,17,6,7,5,6,7,5,6,5,6,5,2,3,3,2,3,1,4.25,4.25,4.25,4,5,4,5,6,"1",29,4,4,6,6,2,2,3,3,5,3,"25000","Computer","19","software",2,0,1,"10"
"86","0DeJj31H","Short Term (Working) Memory",75,5,85,10,"No to treatment",90,1043.28999999777,17,45,47,38,37,43,18,21,19,22,20,15,14,16,17,6,7,5,6,7,5,6,5,6,5,2,3,3,2,3,1,4.25,4.25,4.25,4,5,4,5,6,"1",29,4,4,6,6,2,2,3,3,5,3,"25000","Computer","19","software",2,0,1,"11"
"87","0DeJj31H","Short Term (Working) Memory",75,10,80,10,"Yes to treatment",77,652.865000000049,8,45,47,38,37,43,18,21,19,22,20,15,14,16,17,6,7,5,6,7,5,6,5,6,5,2,3,3,2,3,1,4.25,4.25,4.25,4,5,4,5,6,"1",29,4,4,6,6,2,2,3,3,5,3,"25000","Computer","19","software",2,0,1,"12"
"88","0DeJj31H","Short Term (Working) Memory",75,65,10,25,"Yes to treatment",77,3171.66500000167,0.153846153846154,45,47,38,37,43,18,21,19,22,20,15,14,16,17,6,7,5,6,7,5,6,5,6,5,2,3,3,2,3,1,4.25,4.25,4.25,4,5,4,5,6,"1",29,4,4,6,6,2,2,3,3,5,3,"25000","Computer","19","software",2,0,1,"13"
"89","0DeJj31H","Short Term (Working) Memory",75,90,5,5,"Yes to treatment",90,626.619999999064,0.0555555555555556,45,47,38,37,43,18,21,19,22,20,15,14,16,17,6,7,5,6,7,5,6,5,6,5,2,3,3,2,3,1,4.25,4.25,4.25,4,5,4,5,6,"1",29,4,4,6,6,2,2,3,3,5,3,"25000","Computer","19","software",2,0,1,"14"
"90","0DeJj31H","Short Term (Working) Memory",75,50,10,40,"Yes to treatment",77,769.109999997425,0.2,45,47,38,37,43,18,21,19,22,20,15,14,16,17,6,7,5,6,7,5,6,5,6,5,2,3,3,2,3,1,4.25,4.25,4.25,4,5,4,5,6,"1",29,4,4,6,6,2,2,3,3,5,3,"25000","Computer","19","software",2,0,1,"15"
"91","0DeJj31H","Short Term (Working) Memory",75,50,15,35,"Yes to treatment",90,431.484999997367,0.3,45,47,38,37,43,18,21,19,22,20,15,14,16,17,6,7,5,6,7,5,6,5,6,5,2,3,3,2,3,1,4.25,4.25,4.25,4,5,4,5,6,"1",29,4,4,6,6,2,2,3,3,5,3,"25000","Computer","19","software",2,0,1,"16"
"92","0DeJj31H","Short Term (Working) Memory",75,60,15,25,"Yes to treatment",90,568.349999997707,0.25,45,47,38,37,43,18,21,19,22,20,15,14,16,17,6,7,5,6,7,5,6,5,6,5,2,3,3,2,3,1,4.25,4.25,4.25,4,5,4,5,6,"1",29,4,4,6,6,2,2,3,3,5,3,"25000","Computer","19","software",2,0,1,"17"
"93","0DeJj31H","Short Term (Working) Memory",75,50,5,45,"Yes to treatment",90,556.774999997288,0.1,45,47,38,37,43,18,21,19,22,20,15,14,16,17,6,7,5,6,7,5,6,5,6,5,2,3,3,2,3,1,4.25,4.25,4.25,4,5,4,5,6,"1",29,4,4,6,6,2,2,3,3,5,3,"25000","Computer","19","software",2,0,1,"18"
"94","0DeJj31H","Short Term (Working) Memory",75,40,30,30,"Yes to treatment",77,611.049999999464,0.75,45,47,38,37,43,18,21,19,22,20,15,14,16,17,6,7,5,6,7,5,6,5,6,5,2,3,3,2,3,1,4.25,4.25,4.25,4,5,4,5,6,"1",29,4,4,6,6,2,2,3,3,5,3,"25000","Computer","19","software",2,0,1,"19"
"95","0DeJj31H","Short Term (Working) Memory",75,5,5,90,"Yes to treatment",77,631.754999998491,1,45,47,38,37,43,18,21,19,22,20,15,14,16,17,6,7,5,6,7,5,6,5,6,5,2,3,3,2,3,1,4.25,4.25,4.25,4,5,4,5,6,"1",29,4,4,6,6,2,2,3,3,5,3,"25000","Computer","19","software",2,0,1,"20"
"96","0DeJj31H","Short Term (Working) Memory",75,70,20,10,"Yes to treatment",77,484.019999999902,0.285714285714286,45,47,38,37,43,18,21,19,22,20,15,14,16,17,6,7,5,6,7,5,6,5,6,5,2,3,3,2,3,1,4.25,4.25,4.25,4,5,4,5,6,"1",29,4,4,6,6,2,2,3,3,5,3,"25000","Computer","19","software",2,0,1,"21"
"97","0DeJj31H","Short Term (Working) Memory",75,5,80,15,"Yes to treatment",77,527.539999999164,16,45,47,38,37,43,18,21,19,22,20,15,14,16,17,6,7,5,6,7,5,6,5,6,5,2,3,3,2,3,1,4.25,4.25,4.25,4,5,4,5,6,"1",29,4,4,6,6,2,2,3,3,5,3,"25000","Computer","19","software",2,0,1,"22"
"98","0DeJj31H","Short Term (Working) Memory",75,35,30,35,"Yes to treatment",90,598.40500000061,0.857142857142857,45,47,38,37,43,18,21,19,22,20,15,14,16,17,6,7,5,6,7,5,6,5,6,5,2,3,3,2,3,1,4.25,4.25,4.25,4,5,4,5,6,"1",29,4,4,6,6,2,2,3,3,5,3,"25000","Computer","19","software",2,0,1,"23"
"99","0DeJj31H","Short Term (Working) Memory",75,90,5,5,"Yes to treatment",77,531.34499999939,0.0555555555555556,45,47,38,37,43,18,21,19,22,20,15,14,16,17,6,7,5,6,7,5,6,5,6,5,2,3,3,2,3,1,4.25,4.25,4.25,4,5,4,5,6,"1",29,4,4,6,6,2,2,3,3,5,3,"25000","Computer","19","software",2,0,1,"24"
"100","0DeJj31H","Short Term (Working) Memory",75,35,30,35,"Yes to treatment",90,516.634999999893,0.857142857142857,45,47,38,37,43,18,21,19,22,20,15,14,16,17,6,7,5,6,7,5,6,5,6,5,2,3,3,2,3,1,4.25,4.25,4.25,4,5,4,5,6,"1",29,4,4,6,6,2,2,3,3,5,3,"25000","Computer","19","software",2,0,1,"25"
"101","0DeJj31H","Short Term (Working) Memory",75,70,15,15,"Yes to treatment",90,581.060000000522,0.214285714285714,45,47,38,37,43,18,21,19,22,20,15,14,16,17,6,7,5,6,7,5,6,5,6,5,2,3,3,2,3,1,4.25,4.25,4.25,4,5,4,5,6,"1",29,4,4,6,6,2,2,3,3,5,3,"25000","Computer","19","software",2,0,1,"26"
"102","0DeJj31H","Short Term (Working) Memory",75,45,40,15,"Yes to treatment",77,599.425000000279,0.888888888888889,45,47,38,37,43,18,21,19,22,20,15,14,16,17,6,7,5,6,7,5,6,5,6,5,2,3,3,2,3,1,4.25,4.25,4.25,4,5,4,5,6,"1",29,4,4,6,6,2,2,3,3,5,3,"25000","Computer","19","software",2,0,1,"27"
"103","0DeJj31H","Short Term (Working) Memory",75,35,20,45,"Yes to treatment",77,4517.01499999769,0.571428571428571,45,47,38,37,43,18,21,19,22,20,15,14,16,17,6,7,5,6,7,5,6,5,6,5,2,3,3,2,3,1,4.25,4.25,4.25,4,5,4,5,6,"1",29,4,4,6,6,2,2,3,3,5,3,"25000","Computer","19","software",2,0,1,"28"
"104","0DeJj31H","Short Term (Working) Memory",75,30,20,50,"Yes to treatment",77,687.955000001239,0.666666666666667,45,47,38,37,43,18,21,19,22,20,15,14,16,17,6,7,5,6,7,5,6,5,6,5,2,3,3,2,3,1,4.25,4.25,4.25,4,5,4,5,6,"1",29,4,4,6,6,2,2,3,3,5,3,"25000","Computer","19","software",2,0,1,"29"
"105","0DeJj31H","Short Term (Working) Memory",75,35,20,45,"Yes to treatment",77,660.659999997704,0.571428571428571,45,47,38,37,43,18,21,19,22,20,15,14,16,17,6,7,5,6,7,5,6,5,6,5,2,3,3,2,3,1,4.25,4.25,4.25,4,5,4,5,6,"1",29,4,4,6,6,2,2,3,3,5,3,"25000","Computer","19","software",2,0,1,"30"
"106","0DeJj31H","Short Term (Working) Memory",75,80,15,5,"Yes to treatment",90,658.250000000466,0.1875,45,47,38,37,43,18,21,19,22,20,15,14,16,17,6,7,5,6,7,5,6,5,6,5,2,3,3,2,3,1,4.25,4.25,4.25,4,5,4,5,6,"1",29,4,4,6,6,2,2,3,3,5,3,"25000","Computer","19","software",2,0,1,"31"
"107","0DeJj31H","Short Term (Working) Memory",75,35,55,10,"No to treatment",90,485.800000002142,1.57142857142857,45,47,38,37,43,18,21,19,22,20,15,14,16,17,6,7,5,6,7,5,6,5,6,5,2,3,3,2,3,1,4.25,4.25,4.25,4,5,4,5,6,"1",29,4,4,6,6,2,2,3,3,5,3,"25000","Computer","19","software",2,0,1,"32"
"108","0DeJj31H","Short Term (Working) Memory",75,85,5,10,"Yes to treatment",90,493.975000001257,0.0588235294117647,45,47,38,37,43,18,21,19,22,20,15,14,16,17,6,7,5,6,7,5,6,5,6,5,2,3,3,2,3,1,4.25,4.25,4.25,4,5,4,5,6,"1",29,4,4,6,6,2,2,3,3,5,3,"25000","Computer","19","software",2,0,1,"33"
"109","0DeJj31H","Short Term (Working) Memory",75,10,25,65,"Yes to treatment",90,842.889999999898,2.5,45,47,38,37,43,18,21,19,22,20,15,14,16,17,6,7,5,6,7,5,6,5,6,5,2,3,3,2,3,1,4.25,4.25,4.25,4,5,4,5,6,"1",29,4,4,6,6,2,2,3,3,5,3,"25000","Computer","19","software",2,0,1,"34"
"110","0DeJj31H","Short Term (Working) Memory",75,55,20,25,"Yes to treatment",90,605.51000000129,0.363636363636364,45,47,38,37,43,18,21,19,22,20,15,14,16,17,6,7,5,6,7,5,6,5,6,5,2,3,3,2,3,1,4.25,4.25,4.25,4,5,4,5,6,"1",29,4,4,6,6,2,2,3,3,5,3,"25000","Computer","19","software",2,0,1,"35"
"111","0DeJj31H","Short Term (Working) Memory",75,30,45,25,"Yes to treatment",77,506.805000000866,1.5,45,47,38,37,43,18,21,19,22,20,15,14,16,17,6,7,5,6,7,5,6,5,6,5,2,3,3,2,3,1,4.25,4.25,4.25,4,5,4,5,6,"1",29,4,4,6,6,2,2,3,3,5,3,"25000","Computer","19","software",2,0,1,"36"
"112","0DeJj31H","Short Term (Working) Memory",75,60,30,10,"Yes to treatment",90,557.710000000894,0.5,45,47,38,37,43,18,21,19,22,20,15,14,16,17,6,7,5,6,7,5,6,5,6,5,2,3,3,2,3,1,4.25,4.25,4.25,4,5,4,5,6,"1",29,4,4,6,6,2,2,3,3,5,3,"25000","Computer","19","software",2,0,1,"37"
"113","0DeJj31H","Short Term (Working) Memory",75,75,20,5,"Yes to treatment",77,5661.64500000014,0.266666666666667,45,47,38,37,43,18,21,19,22,20,15,14,16,17,6,7,5,6,7,5,6,5,6,5,2,3,3,2,3,1,4.25,4.25,4.25,4,5,4,5,6,"1",29,4,4,6,6,2,2,3,3,5,3,"25000","Computer","19","software",2,0,1,"38"
"114","0DeJj31H","Short Term (Working) Memory",75,55,15,30,"Yes to treatment",77,581.214999998338,0.272727272727273,45,47,38,37,43,18,21,19,22,20,15,14,16,17,6,7,5,6,7,5,6,5,6,5,2,3,3,2,3,1,4.25,4.25,4.25,4,5,4,5,6,"1",29,4,4,6,6,2,2,3,3,5,3,"25000","Computer","19","software",2,0,1,"39"
"115","0DeJj31H","Short Term (Working) Memory",75,35,25,40,"Yes to treatment",77,566.35499999905,0.714285714285714,45,47,38,37,43,18,21,19,22,20,15,14,16,17,6,7,5,6,7,5,6,5,6,5,2,3,3,2,3,1,4.25,4.25,4.25,4,5,4,5,6,"1",29,4,4,6,6,2,2,3,3,5,3,"25000","Computer","19","software",2,0,1,"40"
"116","0DeJj31H","Short Term (Working) Memory",75,90,5,5,"Yes to treatment",90,529.160000001837,0.0555555555555556,45,47,38,37,43,18,21,19,22,20,15,14,16,17,6,7,5,6,7,5,6,5,6,5,2,3,3,2,3,1,4.25,4.25,4.25,4,5,4,5,6,"1",29,4,4,6,6,2,2,3,3,5,3,"25000","Computer","19","software",2,0,1,"41"
"117","0DeJj31H","Short Term (Working) Memory",75,55,30,15,"Yes to treatment",77,895.120000001043,0.545454545454545,45,47,38,37,43,18,21,19,22,20,15,14,16,17,6,7,5,6,7,5,6,5,6,5,2,3,3,2,3,1,4.25,4.25,4.25,4,5,4,5,6,"1",29,4,4,6,6,2,2,3,3,5,3,"25000","Computer","19","software",2,0,1,"42"
"118","0DeJj31H","Short Term (Working) Memory",75,30,30,40,"Yes to treatment",90,666.32000000024,1,45,47,38,37,43,18,21,19,22,20,15,14,16,17,6,7,5,6,7,5,6,5,6,5,2,3,3,2,3,1,4.25,4.25,4.25,4,5,4,5,6,"1",29,4,4,6,6,2,2,3,3,5,3,"25000","Computer","19","software",2,0,1,"43"
"119","0DeJj31H","Short Term (Working) Memory",75,65,15,20,"Yes to treatment",90,431.585000002116,0.230769230769231,45,47,38,37,43,18,21,19,22,20,15,14,16,17,6,7,5,6,7,5,6,5,6,5,2,3,3,2,3,1,4.25,4.25,4.25,4,5,4,5,6,"1",29,4,4,6,6,2,2,3,3,5,3,"25000","Computer","19","software",2,0,1,"44"
"120","0DeJj31H","Short Term (Working) Memory",75,5,65,30,"Yes to treatment",90,463.779999998282,13,45,47,38,37,43,18,21,19,22,20,15,14,16,17,6,7,5,6,7,5,6,5,6,5,2,3,3,2,3,1,4.25,4.25,4.25,4,5,4,5,6,"1",29,4,4,6,6,2,2,3,3,5,3,"25000","Computer","19","software",2,0,1,"45"
"121","0DeJj31H","Short Term (Working) Memory",75,90,5,5,"Yes to treatment",77,549.830000003567,0.0555555555555556,45,47,38,37,43,18,21,19,22,20,15,14,16,17,6,7,5,6,7,5,6,5,6,5,2,3,3,2,3,1,4.25,4.25,4.25,4,5,4,5,6,"1",29,4,4,6,6,2,2,3,3,5,3,"25000","Computer","19","software",2,0,1,"46"
"122","0DeJj31H","Short Term (Working) Memory",75,55,10,35,"Yes to treatment",90,739.205000001704,0.181818181818182,45,47,38,37,43,18,21,19,22,20,15,14,16,17,6,7,5,6,7,5,6,5,6,5,2,3,3,2,3,1,4.25,4.25,4.25,4,5,4,5,6,"1",29,4,4,6,6,2,2,3,3,5,3,"25000","Computer","19","software",2,0,1,"47"
"123","0DeJj31H","Short Term (Working) Memory",75,65,20,15,"Yes to treatment",90,658.694999998203,0.307692307692308,45,47,38,37,43,18,21,19,22,20,15,14,16,17,6,7,5,6,7,5,6,5,6,5,2,3,3,2,3,1,4.25,4.25,4.25,4,5,4,5,6,"1",29,4,4,6,6,2,2,3,3,5,3,"25000","Computer","19","software",2,0,1,"48"
"124","0DeJj31H","Short Term (Working) Memory",75,20,45,35,"Yes to treatment",90,864.000000001397,2.25,45,47,38,37,43,18,21,19,22,20,15,14,16,17,6,7,5,6,7,5,6,5,6,5,2,3,3,2,3,1,4.25,4.25,4.25,4,5,4,5,6,"1",29,4,4,6,6,2,2,3,3,5,3,"25000","Computer","19","software",2,0,1,"49"
"125","0DeJj31H","Short Term (Working) Memory",75,50,35,15,"Yes to treatment",90,526.695000000414,0.7,45,47,38,37,43,18,21,19,22,20,15,14,16,17,6,7,5,6,7,5,6,5,6,5,2,3,3,2,3,1,4.25,4.25,4.25,4,5,4,5,6,"1",29,4,4,6,6,2,2,3,3,5,3,"25000","Computer","19","software",2,0,1,"50"
"126","0DeJj31H","Short Term (Working) Memory",75,90,5,5,"Yes to treatment",77,638.1949999996,0.0555555555555556,45,47,38,37,43,18,21,19,22,20,15,14,16,17,6,7,5,6,7,5,6,5,6,5,2,3,3,2,3,1,4.25,4.25,4.25,4,5,4,5,6,"1",29,4,4,6,6,2,2,3,3,5,3,"25000","Computer","19","software",2,0,1,"51"
"127","0DeJj31H","Short Term (Working) Memory",75,5,5,90,"Yes to treatment",77,666.454999998678,1,45,47,38,37,43,18,21,19,22,20,15,14,16,17,6,7,5,6,7,5,6,5,6,5,2,3,3,2,3,1,4.25,4.25,4.25,4,5,4,5,6,"1",29,4,4,6,6,2,2,3,3,5,3,"25000","Computer","19","software",2,0,1,"52"
"128","0DeJj31H","Short Term (Working) Memory",75,90,5,5,"Yes to treatment",90,922.650000000431,0.0555555555555556,45,47,38,37,43,18,21,19,22,20,15,14,16,17,6,7,5,6,7,5,6,5,6,5,2,3,3,2,3,1,4.25,4.25,4.25,4,5,4,5,6,"1",29,4,4,6,6,2,2,3,3,5,3,"25000","Computer","19","software",2,0,1,"53"
"129","0DeJj31H","Short Term (Working) Memory",75,90,5,5,"Yes to treatment",77,713.529999997234,0.0555555555555556,45,47,38,37,43,18,21,19,22,20,15,14,16,17,6,7,5,6,7,5,6,5,6,5,2,3,3,2,3,1,4.25,4.25,4.25,4,5,4,5,6,"1",29,4,4,6,6,2,2,3,3,5,3,"25000","Computer","19","software",2,0,1,"54"
"130","0DeJj31H","Short Term (Working) Memory",75,15,10,75,"Yes to treatment",77,597.695000000356,0.666666666666667,45,47,38,37,43,18,21,19,22,20,15,14,16,17,6,7,5,6,7,5,6,5,6,5,2,3,3,2,3,1,4.25,4.25,4.25,4,5,4,5,6,"1",29,4,4,6,6,2,2,3,3,5,3,"25000","Computer","19","software",2,0,1,"55"
"131","0DeJj31H","Short Term (Working) Memory",75,70,10,20,"Yes to treatment",90,567.159999998752,0.142857142857143,45,47,38,37,43,18,21,19,22,20,15,14,16,17,6,7,5,6,7,5,6,5,6,5,2,3,3,2,3,1,4.25,4.25,4.25,4,5,4,5,6,"1",29,4,4,6,6,2,2,3,3,5,3,"25000","Computer","19","software",2,0,1,"56"
"132","0DeJj31H","Short Term (Working) Memory",75,70,15,15,"Yes to treatment",90,632.979999998468,0.214285714285714,45,47,38,37,43,18,21,19,22,20,15,14,16,17,6,7,5,6,7,5,6,5,6,5,2,3,3,2,3,1,4.25,4.25,4.25,4,5,4,5,6,"1",29,4,4,6,6,2,2,3,3,5,3,"25000","Computer","19","software",2,0,1,"57"
"133","0DeJj31H","Short Term (Working) Memory",75,45,50,5,"Yes to treatment",90,578.63499999803,1.11111111111111,45,47,38,37,43,18,21,19,22,20,15,14,16,17,6,7,5,6,7,5,6,5,6,5,2,3,3,2,3,1,4.25,4.25,4.25,4,5,4,5,6,"1",29,4,4,6,6,2,2,3,3,5,3,"25000","Computer","19","software",2,0,1,"58"
"134","0DeJj31H","Short Term (Working) Memory",75,75,15,10,"Yes to treatment",90,493.164999999804,0.2,45,47,38,37,43,18,21,19,22,20,15,14,16,17,6,7,5,6,7,5,6,5,6,5,2,3,3,2,3,1,4.25,4.25,4.25,4,5,4,5,6,"1",29,4,4,6,6,2,2,3,3,5,3,"25000","Computer","19","software",2,0,1,"59"
"135","0DeJj31H","Short Term (Working) Memory",75,90,5,5,"Yes to treatment",77,591.550000001094,0.0555555555555556,45,47,38,37,43,18,21,19,22,20,15,14,16,17,6,7,5,6,7,5,6,5,6,5,2,3,3,2,3,1,4.25,4.25,4.25,4,5,4,5,6,"1",29,4,4,6,6,2,2,3,3,5,3,"25000","Computer","19","software",2,0,1,"60"
"136","0DeJj31H","Short Term (Working) Memory",75,35,40,25,"Yes to treatment",90,582.979999999166,1.14285714285714,45,47,38,37,43,18,21,19,22,20,15,14,16,17,6,7,5,6,7,5,6,5,6,5,2,3,3,2,3,1,4.25,4.25,4.25,4,5,4,5,6,"1",29,4,4,6,6,2,2,3,3,5,3,"25000","Computer","19","software",2,0,1,"61"
"137","0DeJj31H","Short Term (Working) Memory",75,10,75,15,"Yes to treatment",90,738.570000001462,7.5,45,47,38,37,43,18,21,19,22,20,15,14,16,17,6,7,5,6,7,5,6,5,6,5,2,3,3,2,3,1,4.25,4.25,4.25,4,5,4,5,6,"1",29,4,4,6,6,2,2,3,3,5,3,"25000","Computer","19","software",2,0,1,"62"
"138","0DeJj31H","Short Term (Working) Memory",75,75,15,10,"Yes to treatment",90,575.494999997318,0.2,45,47,38,37,43,18,21,19,22,20,15,14,16,17,6,7,5,6,7,5,6,5,6,5,2,3,3,2,3,1,4.25,4.25,4.25,4,5,4,5,6,"1",29,4,4,6,6,2,2,3,3,5,3,"25000","Computer","19","software",2,0,1,"63"
"139","0DeJj31H","Short Term (Working) Memory",75,80,10,10,"Yes to treatment",77,560.929999999702,0.125,45,47,38,37,43,18,21,19,22,20,15,14,16,17,6,7,5,6,7,5,6,5,6,5,2,3,3,2,3,1,4.25,4.25,4.25,4,5,4,5,6,"1",29,4,4,6,6,2,2,3,3,5,3,"25000","Computer","19","software",2,0,1,"64"
"140","0DeJj31H","Short Term (Working) Memory",75,50,20,30,"Yes to treatment",77,528.854999996838,0.4,45,47,38,37,43,18,21,19,22,20,15,14,16,17,6,7,5,6,7,5,6,5,6,5,2,3,3,2,3,1,4.25,4.25,4.25,4,5,4,5,6,"1",29,4,4,6,6,2,2,3,3,5,3,"25000","Computer","19","software",2,0,1,"65"
"141","0DeJj31H","Short Term (Working) Memory",75,35,40,25,"Yes to treatment",90,514.454999996815,1.14285714285714,45,47,38,37,43,18,21,19,22,20,15,14,16,17,6,7,5,6,7,5,6,5,6,5,2,3,3,2,3,1,4.25,4.25,4.25,4,5,4,5,6,"1",29,4,4,6,6,2,2,3,3,5,3,"25000","Computer","19","software",2,0,1,"66"
"142","0DeJj31H","Short Term (Working) Memory",75,40,15,45,"Yes to treatment",77,597.495000001858,0.375,45,47,38,37,43,18,21,19,22,20,15,14,16,17,6,7,5,6,7,5,6,5,6,5,2,3,3,2,3,1,4.25,4.25,4.25,4,5,4,5,6,"1",29,4,4,6,6,2,2,3,3,5,3,"25000","Computer","19","software",2,0,1,"67"
"143","0DeJj31H","Short Term (Working) Memory",75,60,10,30,"Yes to treatment",77,605.459999998799,0.166666666666667,45,47,38,37,43,18,21,19,22,20,15,14,16,17,6,7,5,6,7,5,6,5,6,5,2,3,3,2,3,1,4.25,4.25,4.25,4,5,4,5,6,"1",29,4,4,6,6,2,2,3,3,5,3,"25000","Computer","19","software",2,0,1,"68"
"144","0DeJj31H","Short Term (Working) Memory",75,50,25,25,"Yes to treatment",90,467.574999998789,0.5,45,47,38,37,43,18,21,19,22,20,15,14,16,17,6,7,5,6,7,5,6,5,6,5,2,3,3,2,3,1,4.25,4.25,4.25,4,5,4,5,6,"1",29,4,4,6,6,2,2,3,3,5,3,"25000","Computer","19","software",2,0,1,"69"
"145","0DeJj31H","Short Term (Working) Memory",75,45,20,35,"Yes to treatment",90,656.254999998026,0.444444444444444,45,47,38,37,43,18,21,19,22,20,15,14,16,17,6,7,5,6,7,5,6,5,6,5,2,3,3,2,3,1,4.25,4.25,4.25,4,5,4,5,6,"1",29,4,4,6,6,2,2,3,3,5,3,"25000","Computer","19","software",2,0,1,"70"
"146","0DeJj31H","Short Term (Working) Memory",75,40,30,30,"Yes to treatment",90,493.764999999257,0.75,45,47,38,37,43,18,21,19,22,20,15,14,16,17,6,7,5,6,7,5,6,5,6,5,2,3,3,2,3,1,4.25,4.25,4.25,4,5,4,5,6,"1",29,4,4,6,6,2,2,3,3,5,3,"25000","Computer","19","software",2,0,1,"71"
"147","0DeJj31H","Short Term (Working) Memory",75,20,65,15,"Yes to treatment",77,600.084999998217,3.25,45,47,38,37,43,18,21,19,22,20,15,14,16,17,6,7,5,6,7,5,6,5,6,5,2,3,3,2,3,1,4.25,4.25,4.25,4,5,4,5,6,"1",29,4,4,6,6,2,2,3,3,5,3,"25000","Computer","19","software",2,0,1,"72"
"148","0DeJj31H","Short Term (Working) Memory",75,85,10,5,"Yes to treatment",90,564.374999998137,0.117647058823529,45,47,38,37,43,18,21,19,22,20,15,14,16,17,6,7,5,6,7,5,6,5,6,5,2,3,3,2,3,1,4.25,4.25,4.25,4,5,4,5,6,"1",29,4,4,6,6,2,2,3,3,5,3,"25000","Computer","19","software",2,0,1,"73"
"149","0DeJj31H","Short Term (Working) Memory",75,90,5,5,"Yes to treatment",90,1378.32499999786,0.0555555555555556,45,47,38,37,43,18,21,19,22,20,15,14,16,17,6,7,5,6,7,5,6,5,6,5,2,3,3,2,3,1,4.25,4.25,4.25,4,5,4,5,6,"1",29,4,4,6,6,2,2,3,3,5,3,"25000","Computer","19","software",2,0,1,"74"
"150","0DeJj31H","Short Term (Working) Memory",75,15,15,70,"Yes to treatment",77,1202.40000000194,1,45,47,38,37,43,18,21,19,22,20,15,14,16,17,6,7,5,6,7,5,6,5,6,5,2,3,3,2,3,1,4.25,4.25,4.25,4,5,4,5,6,"1",29,4,4,6,6,2,2,3,3,5,3,"25000","Computer","19","software",2,0,1,"75"
"151","19x3QrYn","Language (spoken)",75,10,10,80,"Yes to treatment",77,1022.78999984264,1,56,45,40,40,56,24,26,25,20,20,21,20,15,20,8,8,8,8,8,8,8,8,8,8,1,3,1,1,1,1,5.375,6,4.75,1,7,7,7,7,"1",33,4,3,1,1,4,4,6,6,6,3,"50000","4","12","FULL TIME",1,1,1,"1"
"152","19x3QrYn","Language (spoken)",75,20,65,15,"Yes to treatment",90,586.63500007242,3.25,56,45,40,40,56,24,26,25,20,20,21,20,15,20,8,8,8,8,8,8,8,8,8,8,1,3,1,1,1,1,5.375,6,4.75,1,7,7,7,7,"1",33,4,3,1,1,4,4,6,6,6,3,"50000","4","12","FULL TIME",1,1,1,"2"
"153","19x3QrYn","Language (spoken)",75,45,45,10,"Yes to treatment",90,751.004999503493,1,56,45,40,40,56,24,26,25,20,20,21,20,15,20,8,8,8,8,8,8,8,8,8,8,1,3,1,1,1,1,5.375,6,4.75,1,7,7,7,7,"1",33,4,3,1,1,4,4,6,6,6,3,"50000","4","12","FULL TIME",1,1,1,"3"
"154","19x3QrYn","Language (spoken)",75,80,10,10,"Yes to treatment",77,395.804999396205,0.125,56,45,40,40,56,24,26,25,20,20,21,20,15,20,8,8,8,8,8,8,8,8,8,8,1,3,1,1,1,1,5.375,6,4.75,1,7,7,7,7,"1",33,4,3,1,1,4,4,6,6,6,3,"50000","4","12","FULL TIME",1,1,1,"4"
"155","19x3QrYn","Language (spoken)",75,80,5,15,"Yes to treatment",77,528.254999779165,0.0625,56,45,40,40,56,24,26,25,20,20,21,20,15,20,8,8,8,8,8,8,8,8,8,8,1,3,1,1,1,1,5.375,6,4.75,1,7,7,7,7,"1",33,4,3,1,1,4,4,6,6,6,3,"50000","4","12","FULL TIME",1,1,1,"5"
"156","19x3QrYn","Language (spoken)",75,20,55,25,"Yes to treatment",90,728.985000401735,2.75,56,45,40,40,56,24,26,25,20,20,21,20,15,20,8,8,8,8,8,8,8,8,8,8,1,3,1,1,1,1,5.375,6,4.75,1,7,7,7,7,"1",33,4,3,1,1,4,4,6,6,6,3,"50000","4","12","FULL TIME",1,1,1,"6"
"157","19x3QrYn","Language (spoken)",75,65,15,20,"Yes to treatment",90,586.544999852777,0.230769230769231,56,45,40,40,56,24,26,25,20,20,21,20,15,20,8,8,8,8,8,8,8,8,8,8,1,3,1,1,1,1,5.375,6,4.75,1,7,7,7,7,"1",33,4,3,1,1,4,4,6,6,6,3,"50000","4","12","FULL TIME",1,1,1,"7"
"158","19x3QrYn","Language (spoken)",75,50,15,35,"Yes to treatment",77,438.075000420213,0.3,56,45,40,40,56,24,26,25,20,20,21,20,15,20,8,8,8,8,8,8,8,8,8,8,1,3,1,1,1,1,5.375,6,4.75,1,7,7,7,7,"1",33,4,3,1,1,4,4,6,6,6,3,"50000","4","12","FULL TIME",1,1,1,"8"
"159","19x3QrYn","Language (spoken)",75,75,20,5,"Yes to treatment",77,1582.22999982536,0.266666666666667,56,45,40,40,56,24,26,25,20,20,21,20,15,20,8,8,8,8,8,8,8,8,8,8,1,3,1,1,1,1,5.375,6,4.75,1,7,7,7,7,"1",33,4,3,1,1,4,4,6,6,6,3,"50000","4","12","FULL TIME",1,1,1,"9"
"160","19x3QrYn","Language (spoken)",75,40,35,25,"Yes to treatment",90,1203.1199997291,0.875,56,45,40,40,56,24,26,25,20,20,21,20,15,20,8,8,8,8,8,8,8,8,8,8,1,3,1,1,1,1,5.375,6,4.75,1,7,7,7,7,"1",33,4,3,1,1,4,4,6,6,6,3,"50000","4","12","FULL TIME",1,1,1,"10"
"161","19x3QrYn","Language (spoken)",75,30,15,55,"Yes to treatment",90,649.524999782443,0.5,56,45,40,40,56,24,26,25,20,20,21,20,15,20,8,8,8,8,8,8,8,8,8,8,1,3,1,1,1,1,5.375,6,4.75,1,7,7,7,7,"1",33,4,3,1,1,4,4,6,6,6,3,"50000","4","12","FULL TIME",1,1,1,"11"
"162","19x3QrYn","Language (spoken)",75,10,85,5,"Yes to treatment",90,5224.9750001356,8.5,56,45,40,40,56,24,26,25,20,20,21,20,15,20,8,8,8,8,8,8,8,8,8,8,1,3,1,1,1,1,5.375,6,4.75,1,7,7,7,7,"1",33,4,3,1,1,4,4,6,6,6,3,"50000","4","12","FULL TIME",1,1,1,"12"
"163","19x3QrYn","Language (spoken)",75,65,25,10,"Yes to treatment",77,417.100000195205,0.384615384615385,56,45,40,40,56,24,26,25,20,20,21,20,15,20,8,8,8,8,8,8,8,8,8,8,1,3,1,1,1,1,5.375,6,4.75,1,7,7,7,7,"1",33,4,3,1,1,4,4,6,6,6,3,"50000","4","12","FULL TIME",1,1,1,"13"
"164","19x3QrYn","Language (spoken)",75,75,5,20,"Yes to treatment",77,426.954999566078,0.0666666666666667,56,45,40,40,56,24,26,25,20,20,21,20,15,20,8,8,8,8,8,8,8,8,8,8,1,3,1,1,1,1,5.375,6,4.75,1,7,7,7,7,"1",33,4,3,1,1,4,4,6,6,6,3,"50000","4","12","FULL TIME",1,1,1,"14"
"165","19x3QrYn","Language (spoken)",75,30,55,15,"Yes to treatment",77,397.330000065267,1.83333333333333,56,45,40,40,56,24,26,25,20,20,21,20,15,20,8,8,8,8,8,8,8,8,8,8,1,3,1,1,1,1,5.375,6,4.75,1,7,7,7,7,"1",33,4,3,1,1,4,4,6,6,6,3,"50000","4","12","FULL TIME",1,1,1,"15"
"166","19x3QrYn","Language (spoken)",75,90,5,5,"Yes to treatment",77,556.175000034273,0.0555555555555556,56,45,40,40,56,24,26,25,20,20,21,20,15,20,8,8,8,8,8,8,8,8,8,8,1,3,1,1,1,1,5.375,6,4.75,1,7,7,7,7,"1",33,4,3,1,1,4,4,6,6,6,3,"50000","4","12","FULL TIME",1,1,1,"16"
"167","19x3QrYn","Language (spoken)",75,15,5,80,"Yes to treatment",90,4028.70999928564,0.333333333333333,56,45,40,40,56,24,26,25,20,20,21,20,15,20,8,8,8,8,8,8,8,8,8,8,1,3,1,1,1,1,5.375,6,4.75,1,7,7,7,7,"1",33,4,3,1,1,4,4,6,6,6,3,"50000","4","12","FULL TIME",1,1,1,"17"
"168","19x3QrYn","Language (spoken)",75,45,15,40,"Yes to treatment",77,944.464999251068,0.333333333333333,56,45,40,40,56,24,26,25,20,20,21,20,15,20,8,8,8,8,8,8,8,8,8,8,1,3,1,1,1,1,5.375,6,4.75,1,7,7,7,7,"1",33,4,3,1,1,4,4,6,6,6,3,"50000","4","12","FULL TIME",1,1,1,"18"
"169","19x3QrYn","Language (spoken)",75,50,45,5,"Yes to treatment",90,709.950000047684,0.9,56,45,40,40,56,24,26,25,20,20,21,20,15,20,8,8,8,8,8,8,8,8,8,8,1,3,1,1,1,1,5.375,6,4.75,1,7,7,7,7,"1",33,4,3,1,1,4,4,6,6,6,3,"50000","4","12","FULL TIME",1,1,1,"19"
"170","19x3QrYn","Language (spoken)",75,80,10,10,"Yes to treatment",90,612.634999677539,0.125,56,45,40,40,56,24,26,25,20,20,21,20,15,20,8,8,8,8,8,8,8,8,8,8,1,3,1,1,1,1,5.375,6,4.75,1,7,7,7,7,"1",33,4,3,1,1,4,4,6,6,6,3,"50000","4","12","FULL TIME",1,1,1,"20"
"171","19x3QrYn","Language (spoken)",75,5,55,40,"No to treatment",90,1865.82500021905,11,56,45,40,40,56,24,26,25,20,20,21,20,15,20,8,8,8,8,8,8,8,8,8,8,1,3,1,1,1,1,5.375,6,4.75,1,7,7,7,7,"1",33,4,3,1,1,4,4,6,6,6,3,"50000","4","12","FULL TIME",1,1,1,"21"
"172","19x3QrYn","Language (spoken)",75,25,30,45,"Yes to treatment",90,712.770000100136,1.2,56,45,40,40,56,24,26,25,20,20,21,20,15,20,8,8,8,8,8,8,8,8,8,8,1,3,1,1,1,1,5.375,6,4.75,1,7,7,7,7,"1",33,4,3,1,1,4,4,6,6,6,3,"50000","4","12","FULL TIME",1,1,1,"22"
"173","19x3QrYn","Language (spoken)",75,20,75,5,"Yes to treatment",77,485.43499968946,3.75,56,45,40,40,56,24,26,25,20,20,21,20,15,20,8,8,8,8,8,8,8,8,8,8,1,3,1,1,1,1,5.375,6,4.75,1,7,7,7,7,"1",33,4,3,1,1,4,4,6,6,6,3,"50000","4","12","FULL TIME",1,1,1,"23"
"174","19x3QrYn","Language (spoken)",75,30,35,35,"Yes to treatment",90,2743.87499969453,1.16666666666667,56,45,40,40,56,24,26,25,20,20,21,20,15,20,8,8,8,8,8,8,8,8,8,8,1,3,1,1,1,1,5.375,6,4.75,1,7,7,7,7,"1",33,4,3,1,1,4,4,6,6,6,3,"50000","4","12","FULL TIME",1,1,1,"24"
"175","19x3QrYn","Language (spoken)",75,80,10,10,"Yes to treatment",77,1521.02999947965,0.125,56,45,40,40,56,24,26,25,20,20,21,20,15,20,8,8,8,8,8,8,8,8,8,8,1,3,1,1,1,1,5.375,6,4.75,1,7,7,7,7,"1",33,4,3,1,1,4,4,6,6,6,3,"50000","4","12","FULL TIME",1,1,1,"25"
"176","19x3QrYn","Language (spoken)",75,45,35,20,"Yes to treatment",90,576.144999824464,0.777777777777778,56,45,40,40,56,24,26,25,20,20,21,20,15,20,8,8,8,8,8,8,8,8,8,8,1,3,1,1,1,1,5.375,6,4.75,1,7,7,7,7,"1",33,4,3,1,1,4,4,6,6,6,3,"50000","4","12","FULL TIME",1,1,1,"26"
"177","19x3QrYn","Language (spoken)",75,15,65,20,"Yes to treatment",90,630.399999208748,4.33333333333333,56,45,40,40,56,24,26,25,20,20,21,20,15,20,8,8,8,8,8,8,8,8,8,8,1,3,1,1,1,1,5.375,6,4.75,1,7,7,7,7,"1",33,4,3,1,1,4,4,6,6,6,3,"50000","4","12","FULL TIME",1,1,1,"27"
"178","19x3QrYn","Language (spoken)",75,85,10,5,"Yes to treatment",77,1036.0300000757,0.117647058823529,56,45,40,40,56,24,26,25,20,20,21,20,15,20,8,8,8,8,8,8,8,8,8,8,1,3,1,1,1,1,5.375,6,4.75,1,7,7,7,7,"1",33,4,3,1,1,4,4,6,6,6,3,"50000","4","12","FULL TIME",1,1,1,"28"
"179","19x3QrYn","Language (spoken)",75,55,30,15,"Yes to treatment",77,689.105000346899,0.545454545454545,56,45,40,40,56,24,26,25,20,20,21,20,15,20,8,8,8,8,8,8,8,8,8,8,1,3,1,1,1,1,5.375,6,4.75,1,7,7,7,7,"1",33,4,3,1,1,4,4,6,6,6,3,"50000","4","12","FULL TIME",1,1,1,"29"
"180","19x3QrYn","Language (spoken)",75,70,25,5,"Yes to treatment",77,727.869999594986,0.357142857142857,56,45,40,40,56,24,26,25,20,20,21,20,15,20,8,8,8,8,8,8,8,8,8,8,1,3,1,1,1,1,5.375,6,4.75,1,7,7,7,7,"1",33,4,3,1,1,4,4,6,6,6,3,"50000","4","12","FULL TIME",1,1,1,"30"
"181","19x3QrYn","Language (spoken)",75,75,20,5,"Yes to treatment",77,4312.14500032365,0.266666666666667,56,45,40,40,56,24,26,25,20,20,21,20,15,20,8,8,8,8,8,8,8,8,8,8,1,3,1,1,1,1,5.375,6,4.75,1,7,7,7,7,"1",33,4,3,1,1,4,4,6,6,6,3,"50000","4","12","FULL TIME",1,1,1,"31"
"182","19x3QrYn","Language (spoken)",75,15,45,40,"Yes to treatment",90,1330.04000037909,3,56,45,40,40,56,24,26,25,20,20,21,20,15,20,8,8,8,8,8,8,8,8,8,8,1,3,1,1,1,1,5.375,6,4.75,1,7,7,7,7,"1",33,4,3,1,1,4,4,6,6,6,3,"50000","4","12","FULL TIME",1,1,1,"32"
"183","19x3QrYn","Language (spoken)",75,40,25,35,"Yes to treatment",77,957.750000059605,0.625,56,45,40,40,56,24,26,25,20,20,21,20,15,20,8,8,8,8,8,8,8,8,8,8,1,3,1,1,1,1,5.375,6,4.75,1,7,7,7,7,"1",33,4,3,1,1,4,4,6,6,6,3,"50000","4","12","FULL TIME",1,1,1,"33"
"184","19x3QrYn","Language (spoken)",75,90,5,5,"Yes to treatment",77,485.975000075996,0.0555555555555556,56,45,40,40,56,24,26,25,20,20,21,20,15,20,8,8,8,8,8,8,8,8,8,8,1,3,1,1,1,1,5.375,6,4.75,1,7,7,7,7,"1",33,4,3,1,1,4,4,6,6,6,3,"50000","4","12","FULL TIME",1,1,1,"34"
"185","19x3QrYn","Language (spoken)",75,25,30,45,"Yes to treatment",77,770.349999889731,1.2,56,45,40,40,56,24,26,25,20,20,21,20,15,20,8,8,8,8,8,8,8,8,8,8,1,3,1,1,1,1,5.375,6,4.75,1,7,7,7,7,"1",33,4,3,1,1,4,4,6,6,6,3,"50000","4","12","FULL TIME",1,1,1,"35"
"186","19x3QrYn","Language (spoken)",75,35,55,10,"Yes to treatment",77,773.18499982357,1.57142857142857,56,45,40,40,56,24,26,25,20,20,21,20,15,20,8,8,8,8,8,8,8,8,8,8,1,3,1,1,1,1,5.375,6,4.75,1,7,7,7,7,"1",33,4,3,1,1,4,4,6,6,6,3,"50000","4","12","FULL TIME",1,1,1,"36"
"187","19x3QrYn","Language (spoken)",75,55,30,15,"Yes to treatment",90,1600.02000071108,0.545454545454545,56,45,40,40,56,24,26,25,20,20,21,20,15,20,8,8,8,8,8,8,8,8,8,8,1,3,1,1,1,1,5.375,6,4.75,1,7,7,7,7,"1",33,4,3,1,1,4,4,6,6,6,3,"50000","4","12","FULL TIME",1,1,1,"37"
"188","19x3QrYn","Language (spoken)",75,40,40,20,"Yes to treatment",77,717.679999768734,1,56,45,40,40,56,24,26,25,20,20,21,20,15,20,8,8,8,8,8,8,8,8,8,8,1,3,1,1,1,1,5.375,6,4.75,1,7,7,7,7,"1",33,4,3,1,1,4,4,6,6,6,3,"50000","4","12","FULL TIME",1,1,1,"38"
"189","19x3QrYn","Language (spoken)",75,80,15,5,"Yes to treatment",90,793.120000511408,0.1875,56,45,40,40,56,24,26,25,20,20,21,20,15,20,8,8,8,8,8,8,8,8,8,8,1,3,1,1,1,1,5.375,6,4.75,1,7,7,7,7,"1",33,4,3,1,1,4,4,6,6,6,3,"50000","4","12","FULL TIME",1,1,1,"39"
"190","19x3QrYn","Language (spoken)",75,20,15,65,"No to treatment",77,738.274999894202,0.75,56,45,40,40,56,24,26,25,20,20,21,20,15,20,8,8,8,8,8,8,8,8,8,8,1,3,1,1,1,1,5.375,6,4.75,1,7,7,7,7,"1",33,4,3,1,1,4,4,6,6,6,3,"50000","4","12","FULL TIME",1,1,1,"40"
"191","19x3QrYn","Language (spoken)",75,70,5,25,"Yes to treatment",77,533.950000070035,0.0714285714285714,56,45,40,40,56,24,26,25,20,20,21,20,15,20,8,8,8,8,8,8,8,8,8,8,1,3,1,1,1,1,5.375,6,4.75,1,7,7,7,7,"1",33,4,3,1,1,4,4,6,6,6,3,"50000","4","12","FULL TIME",1,1,1,"41"
"192","19x3QrYn","Language (spoken)",75,40,55,5,"Yes to treatment",90,614.684999920428,1.375,56,45,40,40,56,24,26,25,20,20,21,20,15,20,8,8,8,8,8,8,8,8,8,8,1,3,1,1,1,1,5.375,6,4.75,1,7,7,7,7,"1",33,4,3,1,1,4,4,6,6,6,3,"50000","4","12","FULL TIME",1,1,1,"42"
"193","19x3QrYn","Language (spoken)",75,5,45,50,"No to treatment",90,1332.24499970675,9,56,45,40,40,56,24,26,25,20,20,21,20,15,20,8,8,8,8,8,8,8,8,8,8,1,3,1,1,1,1,5.375,6,4.75,1,7,7,7,7,"1",33,4,3,1,1,4,4,6,6,6,3,"50000","4","12","FULL TIME",1,1,1,"43"
"194","19x3QrYn","Language (spoken)",75,85,10,5,"Yes to treatment",77,869.445000775158,0.117647058823529,56,45,40,40,56,24,26,25,20,20,21,20,15,20,8,8,8,8,8,8,8,8,8,8,1,3,1,1,1,1,5.375,6,4.75,1,7,7,7,7,"1",33,4,3,1,1,4,4,6,6,6,3,"50000","4","12","FULL TIME",1,1,1,"44"
"195","19x3QrYn","Language (spoken)",75,80,10,10,"Yes to treatment",77,458.525000140071,0.125,56,45,40,40,56,24,26,25,20,20,21,20,15,20,8,8,8,8,8,8,8,8,8,8,1,3,1,1,1,1,5.375,6,4.75,1,7,7,7,7,"1",33,4,3,1,1,4,4,6,6,6,3,"50000","4","12","FULL TIME",1,1,1,"45"
"196","19x3QrYn","Language (spoken)",75,90,5,5,"No to treatment",77,5359.54499989748,0.0555555555555556,56,45,40,40,56,24,26,25,20,20,21,20,15,20,8,8,8,8,8,8,8,8,8,8,1,3,1,1,1,1,5.375,6,4.75,1,7,7,7,7,"1",33,4,3,1,1,4,4,6,6,6,3,"50000","4","12","FULL TIME",1,1,1,"46"
"197","19x3QrYn","Language (spoken)",75,65,30,5,"Yes to treatment",77,646.025000140071,0.461538461538462,56,45,40,40,56,24,26,25,20,20,21,20,15,20,8,8,8,8,8,8,8,8,8,8,1,3,1,1,1,1,5.375,6,4.75,1,7,7,7,7,"1",33,4,3,1,1,4,4,6,6,6,3,"50000","4","12","FULL TIME",1,1,1,"47"
"198","19x3QrYn","Language (spoken)",75,30,40,30,"Yes to treatment",77,3561.22499983758,1.33333333333333,56,45,40,40,56,24,26,25,20,20,21,20,15,20,8,8,8,8,8,8,8,8,8,8,1,3,1,1,1,1,5.375,6,4.75,1,7,7,7,7,"1",33,4,3,1,1,4,4,6,6,6,3,"50000","4","12","FULL TIME",1,1,1,"48"
"199","19x3QrYn","Language (spoken)",75,15,15,70,"No to treatment",77,1978.11000049114,1,56,45,40,40,56,24,26,25,20,20,21,20,15,20,8,8,8,8,8,8,8,8,8,8,1,3,1,1,1,1,5.375,6,4.75,1,7,7,7,7,"1",33,4,3,1,1,4,4,6,6,6,3,"50000","4","12","FULL TIME",1,1,1,"49"
"200","19x3QrYn","Language (spoken)",75,20,50,30,"No to treatment",90,1626.65500026196,2.5,56,45,40,40,56,24,26,25,20,20,21,20,15,20,8,8,8,8,8,8,8,8,8,8,1,3,1,1,1,1,5.375,6,4.75,1,7,7,7,7,"1",33,4,3,1,1,4,4,6,6,6,3,"50000","4","12","FULL TIME",1,1,1,"50"
"201","19x3QrYn","Language (spoken)",75,85,5,10,"Yes to treatment",90,12265.000000596,0.0588235294117647,56,45,40,40,56,24,26,25,20,20,21,20,15,20,8,8,8,8,8,8,8,8,8,8,1,3,1,1,1,1,5.375,6,4.75,1,7,7,7,7,"1",33,4,3,1,1,4,4,6,6,6,3,"50000","4","12","FULL TIME",1,1,1,"51"
"202","19x3QrYn","Language (spoken)",75,40,5,55,"Yes to treatment",77,552.420000545681,0.125,56,45,40,40,56,24,26,25,20,20,21,20,15,20,8,8,8,8,8,8,8,8,8,8,1,3,1,1,1,1,5.375,6,4.75,1,7,7,7,7,"1",33,4,3,1,1,4,4,6,6,6,3,"50000","4","12","FULL TIME",1,1,1,"52"
"203","19x3QrYn","Language (spoken)",75,90,5,5,"Yes to treatment",77,544.145000167191,0.0555555555555556,56,45,40,40,56,24,26,25,20,20,21,20,15,20,8,8,8,8,8,8,8,8,8,8,1,3,1,1,1,1,5.375,6,4.75,1,7,7,7,7,"1",33,4,3,1,1,4,4,6,6,6,3,"50000","4","12","FULL TIME",1,1,1,"53"
"204","19x3QrYn","Language (spoken)",75,15,10,75,"Yes to treatment",77,1076.40499994159,0.666666666666667,56,45,40,40,56,24,26,25,20,20,21,20,15,20,8,8,8,8,8,8,8,8,8,8,1,3,1,1,1,1,5.375,6,4.75,1,7,7,7,7,"1",33,4,3,1,1,4,4,6,6,6,3,"50000","4","12","FULL TIME",1,1,1,"54"
"205","19x3QrYn","Language (spoken)",75,50,15,35,"Yes to treatment",77,586.240000091493,0.3,56,45,40,40,56,24,26,25,20,20,21,20,15,20,8,8,8,8,8,8,8,8,8,8,1,3,1,1,1,1,5.375,6,4.75,1,7,7,7,7,"1",33,4,3,1,1,4,4,6,6,6,3,"50000","4","12","FULL TIME",1,1,1,"55"
"206","19x3QrYn","Language (spoken)",75,15,65,20,"Yes to treatment",77,459.604999981821,4.33333333333333,56,45,40,40,56,24,26,25,20,20,21,20,15,20,8,8,8,8,8,8,8,8,8,8,1,3,1,1,1,1,5.375,6,4.75,1,7,7,7,7,"1",33,4,3,1,1,4,4,6,6,6,3,"50000","4","12","FULL TIME",1,1,1,"56"
"207","19x3QrYn","Language (spoken)",75,35,10,55,"Yes to treatment",90,674.244999885559,0.285714285714286,56,45,40,40,56,24,26,25,20,20,21,20,15,20,8,8,8,8,8,8,8,8,8,8,1,3,1,1,1,1,5.375,6,4.75,1,7,7,7,7,"1",33,4,3,1,1,4,4,6,6,6,3,"50000","4","12","FULL TIME",1,1,1,"57"
"208","19x3QrYn","Language (spoken)",75,80,15,5,"Yes to treatment",90,1150.26499982923,0.1875,56,45,40,40,56,24,26,25,20,20,21,20,15,20,8,8,8,8,8,8,8,8,8,8,1,3,1,1,1,1,5.375,6,4.75,1,7,7,7,7,"1",33,4,3,1,1,4,4,6,6,6,3,"50000","4","12","FULL TIME",1,1,1,"58"
"209","19x3QrYn","Language (spoken)",75,65,15,20,"Yes to treatment",77,16854.3999996036,0.230769230769231,56,45,40,40,56,24,26,25,20,20,21,20,15,20,8,8,8,8,8,8,8,8,8,8,1,3,1,1,1,1,5.375,6,4.75,1,7,7,7,7,"1",33,4,3,1,1,4,4,6,6,6,3,"50000","4","12","FULL TIME",1,1,1,"59"
"210","19x3QrYn","Language (spoken)",75,20,15,65,"No to treatment",77,337.580000050366,0.75,56,45,40,40,56,24,26,25,20,20,21,20,15,20,8,8,8,8,8,8,8,8,8,8,1,3,1,1,1,1,5.375,6,4.75,1,7,7,7,7,"1",33,4,3,1,1,4,4,6,6,6,3,"50000","4","12","FULL TIME",1,1,1,"60"
"211","19x3QrYn","Language (spoken)",75,70,10,20,"Yes to treatment",77,17765.2549995109,0.142857142857143,56,45,40,40,56,24,26,25,20,20,21,20,15,20,8,8,8,8,8,8,8,8,8,8,1,3,1,1,1,1,5.375,6,4.75,1,7,7,7,7,"1",33,4,3,1,1,4,4,6,6,6,3,"50000","4","12","FULL TIME",1,1,1,"61"
"212","19x3QrYn","Language (spoken)",75,70,5,25,"Yes to treatment",77,577.159999869764,0.0714285714285714,56,45,40,40,56,24,26,25,20,20,21,20,15,20,8,8,8,8,8,8,8,8,8,8,1,3,1,1,1,1,5.375,6,4.75,1,7,7,7,7,"1",33,4,3,1,1,4,4,6,6,6,3,"50000","4","12","FULL TIME",1,1,1,"62"
"213","19x3QrYn","Language (spoken)",75,10,50,40,"No to treatment",90,2919.57999952137,5,56,45,40,40,56,24,26,25,20,20,21,20,15,20,8,8,8,8,8,8,8,8,8,8,1,3,1,1,1,1,5.375,6,4.75,1,7,7,7,7,"1",33,4,3,1,1,4,4,6,6,6,3,"50000","4","12","FULL TIME",1,1,1,"63"
"214","19x3QrYn","Language (spoken)",75,5,80,15,"No to treatment",90,1304.75500039756,16,56,45,40,40,56,24,26,25,20,20,21,20,15,20,8,8,8,8,8,8,8,8,8,8,1,3,1,1,1,1,5.375,6,4.75,1,7,7,7,7,"1",33,4,3,1,1,4,4,6,6,6,3,"50000","4","12","FULL TIME",1,1,1,"64"
"215","19x3QrYn","Language (spoken)",75,65,20,15,"Yes to treatment",90,687.040000222623,0.307692307692308,56,45,40,40,56,24,26,25,20,20,21,20,15,20,8,8,8,8,8,8,8,8,8,8,1,3,1,1,1,1,5.375,6,4.75,1,7,7,7,7,"1",33,4,3,1,1,4,4,6,6,6,3,"50000","4","12","FULL TIME",1,1,1,"65"
"216","19x3QrYn","Language (spoken)",75,85,5,10,"Yes to treatment",77,513.775000348687,0.0588235294117647,56,45,40,40,56,24,26,25,20,20,21,20,15,20,8,8,8,8,8,8,8,8,8,8,1,3,1,1,1,1,5.375,6,4.75,1,7,7,7,7,"1",33,4,3,1,1,4,4,6,6,6,3,"50000","4","12","FULL TIME",1,1,1,"66"
"217","19x3QrYn","Language (spoken)",75,85,10,5,"Yes to treatment",77,415.520000271499,0.117647058823529,56,45,40,40,56,24,26,25,20,20,21,20,15,20,8,8,8,8,8,8,8,8,8,8,1,3,1,1,1,1,5.375,6,4.75,1,7,7,7,7,"1",33,4,3,1,1,4,4,6,6,6,3,"50000","4","12","FULL TIME",1,1,1,"67"
"218","19x3QrYn","Language (spoken)",75,30,50,20,"Yes to treatment",77,565.225000493228,1.66666666666667,56,45,40,40,56,24,26,25,20,20,21,20,15,20,8,8,8,8,8,8,8,8,8,8,1,3,1,1,1,1,5.375,6,4.75,1,7,7,7,7,"1",33,4,3,1,1,4,4,6,6,6,3,"50000","4","12","FULL TIME",1,1,1,"68"
"219","19x3QrYn","Language (spoken)",75,10,70,20,"Yes to treatment",77,8342.75499917567,7,56,45,40,40,56,24,26,25,20,20,21,20,15,20,8,8,8,8,8,8,8,8,8,8,1,3,1,1,1,1,5.375,6,4.75,1,7,7,7,7,"1",33,4,3,1,1,4,4,6,6,6,3,"50000","4","12","FULL TIME",1,1,1,"69"
"220","19x3QrYn","Language (spoken)",75,15,55,30,"Yes to treatment",90,1017.45499949902,3.66666666666667,56,45,40,40,56,24,26,25,20,20,21,20,15,20,8,8,8,8,8,8,8,8,8,8,1,3,1,1,1,1,5.375,6,4.75,1,7,7,7,7,"1",33,4,3,1,1,4,4,6,6,6,3,"50000","4","12","FULL TIME",1,1,1,"70"
"221","19x3QrYn","Language (spoken)",75,75,5,20,"No to treatment",77,3612.22499981523,0.0666666666666667,56,45,40,40,56,24,26,25,20,20,21,20,15,20,8,8,8,8,8,8,8,8,8,8,1,3,1,1,1,1,5.375,6,4.75,1,7,7,7,7,"1",33,4,3,1,1,4,4,6,6,6,3,"50000","4","12","FULL TIME",1,1,1,"71"
"222","19x3QrYn","Language (spoken)",75,65,10,25,"Yes to treatment",77,621.984999626875,0.153846153846154,56,45,40,40,56,24,26,25,20,20,21,20,15,20,8,8,8,8,8,8,8,8,8,8,1,3,1,1,1,1,5.375,6,4.75,1,7,7,7,7,"1",33,4,3,1,1,4,4,6,6,6,3,"50000","4","12","FULL TIME",1,1,1,"72"
"223","19x3QrYn","Language (spoken)",75,90,5,5,"Yes to treatment",90,619.629999622703,0.0555555555555556,56,45,40,40,56,24,26,25,20,20,21,20,15,20,8,8,8,8,8,8,8,8,8,8,1,3,1,1,1,1,5.375,6,4.75,1,7,7,7,7,"1",33,4,3,1,1,4,4,6,6,6,3,"50000","4","12","FULL TIME",1,1,1,"73"
"224","19x3QrYn","Language (spoken)",75,50,30,20,"Yes to treatment",90,490.880000405014,0.6,56,45,40,40,56,24,26,25,20,20,21,20,15,20,8,8,8,8,8,8,8,8,8,8,1,3,1,1,1,1,5.375,6,4.75,1,7,7,7,7,"1",33,4,3,1,1,4,4,6,6,6,3,"50000","4","12","FULL TIME",1,1,1,"74"
"225","19x3QrYn","Language (spoken)",75,75,15,10,"Yes to treatment",77,591.614999808371,0.2,56,45,40,40,56,24,26,25,20,20,21,20,15,20,8,8,8,8,8,8,8,8,8,8,1,3,1,1,1,1,5.375,6,4.75,1,7,7,7,7,"1",33,4,3,1,1,4,4,6,6,6,3,"50000","4","12","FULL TIME",1,1,1,"75"
"226","2OsQQK3Z","Short Term (Working) Memory",75,55,20,25,"Yes to treatment",77,1315.93000004068,0.363636363636364,36,47,41,37,47,26,28,8,12,5,20,8,25,12,1,4,3,4,1,5,6,1,1,4,2,1,1,1,2,2,4.375,5.25,3.5,1,7,2,1,7,"2",45,2,2,1,11,1,1,1,1,1,1,"27000","accounting","14","not working",1,0,0,"1"
"227","2OsQQK3Z","Short Term (Working) Memory",75,50,15,35,"No to treatment",90,4795.71500001475,0.3,36,47,41,37,47,26,28,8,12,5,20,8,25,12,1,4,3,4,1,5,6,1,1,4,2,1,1,1,2,2,4.375,5.25,3.5,1,7,2,1,7,"2",45,2,2,1,11,1,1,1,1,1,1,"27000","accounting","14","not working",1,0,0,"2"
"228","2OsQQK3Z","Short Term (Working) Memory",75,55,15,30,"Yes to treatment",77,1786.65999998339,0.272727272727273,36,47,41,37,47,26,28,8,12,5,20,8,25,12,1,4,3,4,1,5,6,1,1,4,2,1,1,1,2,2,4.375,5.25,3.5,1,7,2,1,7,"2",45,2,2,1,11,1,1,1,1,1,1,"27000","accounting","14","not working",1,0,0,"3"
"229","2OsQQK3Z","Short Term (Working) Memory",75,20,40,40,"Yes to treatment",90,1195.49500010908,2,36,47,41,37,47,26,28,8,12,5,20,8,25,12,1,4,3,4,1,5,6,1,1,4,2,1,1,1,2,2,4.375,5.25,3.5,1,7,2,1,7,"2",45,2,2,1,11,1,1,1,1,1,1,"27000","accounting","14","not working",1,0,0,"4"
"230","2OsQQK3Z","Short Term (Working) Memory",75,60,15,25,"No to treatment",77,1220.18499998376,0.25,36,47,41,37,47,26,28,8,12,5,20,8,25,12,1,4,3,4,1,5,6,1,1,4,2,1,1,1,2,2,4.375,5.25,3.5,1,7,2,1,7,"2",45,2,2,1,11,1,1,1,1,1,1,"27000","accounting","14","not working",1,0,0,"5"
"231","2OsQQK3Z","Short Term (Working) Memory",75,10,70,20,"Yes to treatment",90,1132.31999985874,7,36,47,41,37,47,26,28,8,12,5,20,8,25,12,1,4,3,4,1,5,6,1,1,4,2,1,1,1,2,2,4.375,5.25,3.5,1,7,2,1,7,"2",45,2,2,1,11,1,1,1,1,1,1,"27000","accounting","14","not working",1,0,0,"6"
"232","2OsQQK3Z","Short Term (Working) Memory",75,70,25,5,"No to treatment",77,1948.72500002384,0.357142857142857,36,47,41,37,47,26,28,8,12,5,20,8,25,12,1,4,3,4,1,5,6,1,1,4,2,1,1,1,2,2,4.375,5.25,3.5,1,7,2,1,7,"2",45,2,2,1,11,1,1,1,1,1,1,"27000","accounting","14","not working",1,0,0,"7"
"233","2OsQQK3Z","Short Term (Working) Memory",75,60,5,35,"No to treatment",90,1203.37500004098,0.0833333333333333,36,47,41,37,47,26,28,8,12,5,20,8,25,12,1,4,3,4,1,5,6,1,1,4,2,1,1,1,2,2,4.375,5.25,3.5,1,7,2,1,7,"2",45,2,2,1,11,1,1,1,1,1,1,"27000","accounting","14","not working",1,0,0,"8"
"234","2OsQQK3Z","Short Term (Working) Memory",75,65,10,25,"No to treatment",90,1508.95499996841,0.153846153846154,36,47,41,37,47,26,28,8,12,5,20,8,25,12,1,4,3,4,1,5,6,1,1,4,2,1,1,1,2,2,4.375,5.25,3.5,1,7,2,1,7,"2",45,2,2,1,11,1,1,1,1,1,1,"27000","accounting","14","not working",1,0,0,"9"
"235","2OsQQK3Z","Short Term (Working) Memory",75,45,15,40,"No to treatment",90,2011.59500004724,0.333333333333333,36,47,41,37,47,26,28,8,12,5,20,8,25,12,1,4,3,4,1,5,6,1,1,4,2,1,1,1,2,2,4.375,5.25,3.5,1,7,2,1,7,"2",45,2,2,1,11,1,1,1,1,1,1,"27000","accounting","14","not working",1,0,0,"10"
"236","2OsQQK3Z","Short Term (Working) Memory",75,10,65,25,"No to treatment",77,3018.87500006706,6.5,36,47,41,37,47,26,28,8,12,5,20,8,25,12,1,4,3,4,1,5,6,1,1,4,2,1,1,1,2,2,4.375,5.25,3.5,1,7,2,1,7,"2",45,2,2,1,11,1,1,1,1,1,1,"27000","accounting","14","not working",1,0,0,"11"
"237","2OsQQK3Z","Short Term (Working) Memory",75,15,10,75,"Yes to treatment",90,2739.88500004634,0.666666666666667,36,47,41,37,47,26,28,8,12,5,20,8,25,12,1,4,3,4,1,5,6,1,1,4,2,1,1,1,2,2,4.375,5.25,3.5,1,7,2,1,7,"2",45,2,2,1,11,1,1,1,1,1,1,"27000","accounting","14","not working",1,0,0,"12"
"238","2OsQQK3Z","Short Term (Working) Memory",75,65,5,30,"No to treatment",77,635.615000035614,0.0769230769230769,36,47,41,37,47,26,28,8,12,5,20,8,25,12,1,4,3,4,1,5,6,1,1,4,2,1,1,1,2,2,4.375,5.25,3.5,1,7,2,1,7,"2",45,2,2,1,11,1,1,1,1,1,1,"27000","accounting","14","not working",1,0,0,"13"
"239","2OsQQK3Z","Short Term (Working) Memory",75,40,5,55,"No to treatment",90,4492.67500010319,0.125,36,47,41,37,47,26,28,8,12,5,20,8,25,12,1,4,3,4,1,5,6,1,1,4,2,1,1,1,2,2,4.375,5.25,3.5,1,7,2,1,7,"2",45,2,2,1,11,1,1,1,1,1,1,"27000","accounting","14","not working",1,0,0,"14"
"240","2OsQQK3Z","Short Term (Working) Memory",75,85,5,10,"No to treatment",77,684.549999888986,0.0588235294117647,36,47,41,37,47,26,28,8,12,5,20,8,25,12,1,4,3,4,1,5,6,1,1,4,2,1,1,1,2,2,4.375,5.25,3.5,1,7,2,1,7,"2",45,2,2,1,11,1,1,1,1,1,1,"27000","accounting","14","not working",1,0,0,"15"
"241","2OsQQK3Z","Short Term (Working) Memory",75,40,55,5,"Yes to treatment",77,1402.69500017166,1.375,36,47,41,37,47,26,28,8,12,5,20,8,25,12,1,4,3,4,1,5,6,1,1,4,2,1,1,1,2,2,4.375,5.25,3.5,1,7,2,1,7,"2",45,2,2,1,11,1,1,1,1,1,1,"27000","accounting","14","not working",1,0,0,"16"
"242","2OsQQK3Z","Short Term (Working) Memory",75,75,10,15,"Yes to treatment",77,1860.70499988273,0.133333333333333,36,47,41,37,47,26,28,8,12,5,20,8,25,12,1,4,3,4,1,5,6,1,1,4,2,1,1,1,2,2,4.375,5.25,3.5,1,7,2,1,7,"2",45,2,2,1,11,1,1,1,1,1,1,"27000","accounting","14","not working",1,0,0,"17"
"243","2OsQQK3Z","Short Term (Working) Memory",75,15,15,70,"No to treatment",90,2012.50000018626,1,36,47,41,37,47,26,28,8,12,5,20,8,25,12,1,4,3,4,1,5,6,1,1,4,2,1,1,1,2,2,4.375,5.25,3.5,1,7,2,1,7,"2",45,2,2,1,11,1,1,1,1,1,1,"27000","accounting","14","not working",1,0,0,"18"
"244","2OsQQK3Z","Short Term (Working) Memory",75,25,30,45,"Yes to treatment",77,1124.21000003815,1.2,36,47,41,37,47,26,28,8,12,5,20,8,25,12,1,4,3,4,1,5,6,1,1,4,2,1,1,1,2,2,4.375,5.25,3.5,1,7,2,1,7,"2",45,2,2,1,11,1,1,1,1,1,1,"27000","accounting","14","not working",1,0,0,"19"
"245","2OsQQK3Z","Short Term (Working) Memory",75,60,5,35,"No to treatment",90,835.515000158921,0.0833333333333333,36,47,41,37,47,26,28,8,12,5,20,8,25,12,1,4,3,4,1,5,6,1,1,4,2,1,1,1,2,2,4.375,5.25,3.5,1,7,2,1,7,"2",45,2,2,1,11,1,1,1,1,1,1,"27000","accounting","14","not working",1,0,0,"20"
"246","2OsQQK3Z","Short Term (Working) Memory",75,35,30,35,"Yes to treatment",77,1564.51499997638,0.857142857142857,36,47,41,37,47,26,28,8,12,5,20,8,25,12,1,4,3,4,1,5,6,1,1,4,2,1,1,1,2,2,4.375,5.25,3.5,1,7,2,1,7,"2",45,2,2,1,11,1,1,1,1,1,1,"27000","accounting","14","not working",1,0,0,"21"
"247","2OsQQK3Z","Short Term (Working) Memory",75,80,10,10,"No to treatment",77,1548.75500011258,0.125,36,47,41,37,47,26,28,8,12,5,20,8,25,12,1,4,3,4,1,5,6,1,1,4,2,1,1,1,2,2,4.375,5.25,3.5,1,7,2,1,7,"2",45,2,2,1,11,1,1,1,1,1,1,"27000","accounting","14","not working",1,0,0,"22"
"248","2OsQQK3Z","Short Term (Working) Memory",75,85,5,10,"No to treatment",90,684.654999990016,0.0588235294117647,36,47,41,37,47,26,28,8,12,5,20,8,25,12,1,4,3,4,1,5,6,1,1,4,2,1,1,1,2,2,4.375,5.25,3.5,1,7,2,1,7,"2",45,2,2,1,11,1,1,1,1,1,1,"27000","accounting","14","not working",1,0,0,"23"
"249","2OsQQK3Z","Short Term (Working) Memory",75,10,75,15,"No to treatment",77,1245.27999991551,7.5,36,47,41,37,47,26,28,8,12,5,20,8,25,12,1,4,3,4,1,5,6,1,1,4,2,1,1,1,2,2,4.375,5.25,3.5,1,7,2,1,7,"2",45,2,2,1,11,1,1,1,1,1,1,"27000","accounting","14","not working",1,0,0,"24"
"250","2OsQQK3Z","Short Term (Working) Memory",75,50,30,20,"Yes to treatment",90,2939.54499997199,0.6,36,47,41,37,47,26,28,8,12,5,20,8,25,12,1,4,3,4,1,5,6,1,1,4,2,1,1,1,2,2,4.375,5.25,3.5,1,7,2,1,7,"2",45,2,2,1,11,1,1,1,1,1,1,"27000","accounting","14","not working",1,0,0,"25"
"251","2OsQQK3Z","Short Term (Working) Memory",75,35,30,35,"Yes to treatment",77,1300.36500003189,0.857142857142857,36,47,41,37,47,26,28,8,12,5,20,8,25,12,1,4,3,4,1,5,6,1,1,4,2,1,1,1,2,2,4.375,5.25,3.5,1,7,2,1,7,"2",45,2,2,1,11,1,1,1,1,1,1,"27000","accounting","14","not working",1,0,0,"26"
"252","2OsQQK3Z","Short Term (Working) Memory",75,5,15,80,"No to treatment",90,1140.54999989457,3,36,47,41,37,47,26,28,8,12,5,20,8,25,12,1,4,3,4,1,5,6,1,1,4,2,1,1,1,2,2,4.375,5.25,3.5,1,7,2,1,7,"2",45,2,2,1,11,1,1,1,1,1,1,"27000","accounting","14","not working",1,0,0,"27"
"253","2OsQQK3Z","Short Term (Working) Memory",75,25,55,20,"Yes to treatment",90,1220.52500001155,2.2,36,47,41,37,47,26,28,8,12,5,20,8,25,12,1,4,3,4,1,5,6,1,1,4,2,1,1,1,2,2,4.375,5.25,3.5,1,7,2,1,7,"2",45,2,2,1,11,1,1,1,1,1,1,"27000","accounting","14","not working",1,0,0,"28"
"254","2OsQQK3Z","Short Term (Working) Memory",75,55,35,10,"Yes to treatment",77,1244.32000005618,0.636363636363636,36,47,41,37,47,26,28,8,12,5,20,8,25,12,1,4,3,4,1,5,6,1,1,4,2,1,1,1,2,2,4.375,5.25,3.5,1,7,2,1,7,"2",45,2,2,1,11,1,1,1,1,1,1,"27000","accounting","14","not working",1,0,0,"29"
"255","2OsQQK3Z","Short Term (Working) Memory",75,45,35,20,"Yes to treatment",77,1251.43499998376,0.777777777777778,36,47,41,37,47,26,28,8,12,5,20,8,25,12,1,4,3,4,1,5,6,1,1,4,2,1,1,1,2,2,4.375,5.25,3.5,1,7,2,1,7,"2",45,2,2,1,11,1,1,1,1,1,1,"27000","accounting","14","not working",1,0,0,"30"
"256","2OsQQK3Z","Short Term (Working) Memory",75,65,5,30,"No to treatment",77,1780.55000002496,0.0769230769230769,36,47,41,37,47,26,28,8,12,5,20,8,25,12,1,4,3,4,1,5,6,1,1,4,2,1,1,1,2,2,4.375,5.25,3.5,1,7,2,1,7,"2",45,2,2,1,11,1,1,1,1,1,1,"27000","accounting","14","not working",1,0,0,"31"
"257","2OsQQK3Z","Short Term (Working) Memory",75,75,15,10,"No to treatment",77,988.565000006929,0.2,36,47,41,37,47,26,28,8,12,5,20,8,25,12,1,4,3,4,1,5,6,1,1,4,2,1,1,1,2,2,4.375,5.25,3.5,1,7,2,1,7,"2",45,2,2,1,11,1,1,1,1,1,1,"27000","accounting","14","not working",1,0,0,"32"
"258","2OsQQK3Z","Short Term (Working) Memory",75,10,5,85,"No to treatment",90,780.595000134781,0.5,36,47,41,37,47,26,28,8,12,5,20,8,25,12,1,4,3,4,1,5,6,1,1,4,2,1,1,1,2,2,4.375,5.25,3.5,1,7,2,1,7,"2",45,2,2,1,11,1,1,1,1,1,1,"27000","accounting","14","not working",1,0,0,"33"
"259","2OsQQK3Z","Short Term (Working) Memory",75,60,35,5,"Yes to treatment",77,1692.04499991611,0.583333333333333,36,47,41,37,47,26,28,8,12,5,20,8,25,12,1,4,3,4,1,5,6,1,1,4,2,1,1,1,2,2,4.375,5.25,3.5,1,7,2,1,7,"2",45,2,2,1,11,1,1,1,1,1,1,"27000","accounting","14","not working",1,0,0,"34"
"260","2OsQQK3Z","Short Term (Working) Memory",75,75,10,15,"Yes to treatment",77,4148.44999997877,0.133333333333333,36,47,41,37,47,26,28,8,12,5,20,8,25,12,1,4,3,4,1,5,6,1,1,4,2,1,1,1,2,2,4.375,5.25,3.5,1,7,2,1,7,"2",45,2,2,1,11,1,1,1,1,1,1,"27000","accounting","14","not working",1,0,0,"35"
"261","2OsQQK3Z","Short Term (Working) Memory",75,25,10,65,"No to treatment",90,3955.83999995142,0.4,36,47,41,37,47,26,28,8,12,5,20,8,25,12,1,4,3,4,1,5,6,1,1,4,2,1,1,1,2,2,4.375,5.25,3.5,1,7,2,1,7,"2",45,2,2,1,11,1,1,1,1,1,1,"27000","accounting","14","not working",1,0,0,"36"
"262","2OsQQK3Z","Short Term (Working) Memory",75,50,45,5,"Yes to treatment",90,1443.82499996573,0.9,36,47,41,37,47,26,28,8,12,5,20,8,25,12,1,4,3,4,1,5,6,1,1,4,2,1,1,1,2,2,4.375,5.25,3.5,1,7,2,1,7,"2",45,2,2,1,11,1,1,1,1,1,1,"27000","accounting","14","not working",1,0,0,"37"
"263","2OsQQK3Z","Short Term (Working) Memory",75,5,60,35,"Yes to treatment",90,771.929999813437,12,36,47,41,37,47,26,28,8,12,5,20,8,25,12,1,4,3,4,1,5,6,1,1,4,2,1,1,1,2,2,4.375,5.25,3.5,1,7,2,1,7,"2",45,2,2,1,11,1,1,1,1,1,1,"27000","accounting","14","not working",1,0,0,"38"
"264","2OsQQK3Z","Short Term (Working) Memory",75,40,10,50,"No to treatment",90,1451.58000010997,0.25,36,47,41,37,47,26,28,8,12,5,20,8,25,12,1,4,3,4,1,5,6,1,1,4,2,1,1,1,2,2,4.375,5.25,3.5,1,7,2,1,7,"2",45,2,2,1,11,1,1,1,1,1,1,"27000","accounting","14","not working",1,0,0,"39"
"265","2OsQQK3Z","Short Term (Working) Memory",75,15,50,35,"Yes to treatment",90,1252.39499984309,3.33333333333333,36,47,41,37,47,26,28,8,12,5,20,8,25,12,1,4,3,4,1,5,6,1,1,4,2,1,1,1,2,2,4.375,5.25,3.5,1,7,2,1,7,"2",45,2,2,1,11,1,1,1,1,1,1,"27000","accounting","14","not working",1,0,0,"40"
"266","2OsQQK3Z","Short Term (Working) Memory",75,20,50,30,"Yes to treatment",77,979.594999924302,2.5,36,47,41,37,47,26,28,8,12,5,20,8,25,12,1,4,3,4,1,5,6,1,1,4,2,1,1,1,2,2,4.375,5.25,3.5,1,7,2,1,7,"2",45,2,2,1,11,1,1,1,1,1,1,"27000","accounting","14","not working",1,0,0,"41"
"267","2OsQQK3Z","Short Term (Working) Memory",75,85,5,10,"No to treatment",77,2020.72999998927,0.0588235294117647,36,47,41,37,47,26,28,8,12,5,20,8,25,12,1,4,3,4,1,5,6,1,1,4,2,1,1,1,2,2,4.375,5.25,3.5,1,7,2,1,7,"2",45,2,2,1,11,1,1,1,1,1,1,"27000","accounting","14","not working",1,0,0,"42"
"268","2OsQQK3Z","Short Term (Working) Memory",75,10,40,50,"Yes to treatment",90,2748.01500001922,4,36,47,41,37,47,26,28,8,12,5,20,8,25,12,1,4,3,4,1,5,6,1,1,4,2,1,1,1,2,2,4.375,5.25,3.5,1,7,2,1,7,"2",45,2,2,1,11,1,1,1,1,1,1,"27000","accounting","14","not working",1,0,0,"43"
"269","2OsQQK3Z","Short Term (Working) Memory",75,15,10,75,"No to treatment",90,907.170000020415,0.666666666666667,36,47,41,37,47,26,28,8,12,5,20,8,25,12,1,4,3,4,1,5,6,1,1,4,2,1,1,1,2,2,4.375,5.25,3.5,1,7,2,1,7,"2",45,2,2,1,11,1,1,1,1,1,1,"27000","accounting","14","not working",1,0,0,"44"
"270","2OsQQK3Z","Short Term (Working) Memory",75,80,5,15,"No to treatment",90,1461.26000001095,0.0625,36,47,41,37,47,26,28,8,12,5,20,8,25,12,1,4,3,4,1,5,6,1,1,4,2,1,1,1,2,2,4.375,5.25,3.5,1,7,2,1,7,"2",45,2,2,1,11,1,1,1,1,1,1,"27000","accounting","14","not working",1,0,0,"45"
"271","2OsQQK3Z","Short Term (Working) Memory",75,50,5,45,"No to treatment",90,5763.62999994308,0.1,36,47,41,37,47,26,28,8,12,5,20,8,25,12,1,4,3,4,1,5,6,1,1,4,2,1,1,1,2,2,4.375,5.25,3.5,1,7,2,1,7,"2",45,2,2,1,11,1,1,1,1,1,1,"27000","accounting","14","not working",1,0,0,"46"
"272","2OsQQK3Z","Short Term (Working) Memory",75,70,10,20,"No to treatment",77,4980.16000003554,0.142857142857143,36,47,41,37,47,26,28,8,12,5,20,8,25,12,1,4,3,4,1,5,6,1,1,4,2,1,1,1,2,2,4.375,5.25,3.5,1,7,2,1,7,"2",45,2,2,1,11,1,1,1,1,1,1,"27000","accounting","14","not working",1,0,0,"47"
"273","2OsQQK3Z","Short Term (Working) Memory",75,90,5,5,"No to treatment",90,844.234999967739,0.0555555555555556,36,47,41,37,47,26,28,8,12,5,20,8,25,12,1,4,3,4,1,5,6,1,1,4,2,1,1,1,2,2,4.375,5.25,3.5,1,7,2,1,7,"2",45,2,2,1,11,1,1,1,1,1,1,"27000","accounting","14","not working",1,0,0,"48"
"274","2OsQQK3Z","Short Term (Working) Memory",75,80,5,15,"No to treatment",77,1074.74000006914,0.0625,36,47,41,37,47,26,28,8,12,5,20,8,25,12,1,4,3,4,1,5,6,1,1,4,2,1,1,1,2,2,4.375,5.25,3.5,1,7,2,1,7,"2",45,2,2,1,11,1,1,1,1,1,1,"27000","accounting","14","not working",1,0,0,"49"
"275","2OsQQK3Z","Short Term (Working) Memory",75,75,10,15,"No to treatment",77,1340.02000000328,0.133333333333333,36,47,41,37,47,26,28,8,12,5,20,8,25,12,1,4,3,4,1,5,6,1,1,4,2,1,1,1,2,2,4.375,5.25,3.5,1,7,2,1,7,"2",45,2,2,1,11,1,1,1,1,1,1,"27000","accounting","14","not working",1,0,0,"50"
"276","2OsQQK3Z","Short Term (Working) Memory",75,80,10,10,"No to treatment",90,764.649999793619,0.125,36,47,41,37,47,26,28,8,12,5,20,8,25,12,1,4,3,4,1,5,6,1,1,4,2,1,1,1,2,2,4.375,5.25,3.5,1,7,2,1,7,"2",45,2,2,1,11,1,1,1,1,1,1,"27000","accounting","14","not working",1,0,0,"51"
"277","2OsQQK3Z","Short Term (Working) Memory",75,80,15,5,"No to treatment",77,1539.57500006072,0.1875,36,47,41,37,47,26,28,8,12,5,20,8,25,12,1,4,3,4,1,5,6,1,1,4,2,1,1,1,2,2,4.375,5.25,3.5,1,7,2,1,7,"2",45,2,2,1,11,1,1,1,1,1,1,"27000","accounting","14","not working",1,0,0,"52"
"278","2OsQQK3Z","Short Term (Working) Memory",75,40,40,20,"Yes to treatment",90,1595.99000005983,1,36,47,41,37,47,26,28,8,12,5,20,8,25,12,1,4,3,4,1,5,6,1,1,4,2,1,1,1,2,2,4.375,5.25,3.5,1,7,2,1,7,"2",45,2,2,1,11,1,1,1,1,1,1,"27000","accounting","14","not working",1,0,0,"53"
"279","2OsQQK3Z","Short Term (Working) Memory",75,40,25,35,"No to treatment",77,1188.00999992527,0.625,36,47,41,37,47,26,28,8,12,5,20,8,25,12,1,4,3,4,1,5,6,1,1,4,2,1,1,1,2,2,4.375,5.25,3.5,1,7,2,1,7,"2",45,2,2,1,11,1,1,1,1,1,1,"27000","accounting","14","not working",1,0,0,"54"
"280","2OsQQK3Z","Short Term (Working) Memory",75,30,35,35,"Yes to treatment",90,1332.09499996156,1.16666666666667,36,47,41,37,47,26,28,8,12,5,20,8,25,12,1,4,3,4,1,5,6,1,1,4,2,1,1,1,2,2,4.375,5.25,3.5,1,7,2,1,7,"2",45,2,2,1,11,1,1,1,1,1,1,"27000","accounting","14","not working",1,0,0,"55"
"281","2OsQQK3Z","Short Term (Working) Memory",75,50,35,15,"Yes to treatment",77,2428.96499997005,0.7,36,47,41,37,47,26,28,8,12,5,20,8,25,12,1,4,3,4,1,5,6,1,1,4,2,1,1,1,2,2,4.375,5.25,3.5,1,7,2,1,7,"2",45,2,2,1,11,1,1,1,1,1,1,"27000","accounting","14","not working",1,0,0,"56"
"282","2OsQQK3Z","Short Term (Working) Memory",75,85,10,5,"No to treatment",90,1043.99499995634,0.117647058823529,36,47,41,37,47,26,28,8,12,5,20,8,25,12,1,4,3,4,1,5,6,1,1,4,2,1,1,1,2,2,4.375,5.25,3.5,1,7,2,1,7,"2",45,2,2,1,11,1,1,1,1,1,1,"27000","accounting","14","not working",1,0,0,"57"
"283","2OsQQK3Z","Short Term (Working) Memory",75,90,5,5,"No to treatment",90,596.424999879673,0.0555555555555556,36,47,41,37,47,26,28,8,12,5,20,8,25,12,1,4,3,4,1,5,6,1,1,4,2,1,1,1,2,2,4.375,5.25,3.5,1,7,2,1,7,"2",45,2,2,1,11,1,1,1,1,1,1,"27000","accounting","14","not working",1,0,0,"58"
"284","2OsQQK3Z","Short Term (Working) Memory",75,55,35,10,"Yes to treatment",77,2612.65500006266,0.636363636363636,36,47,41,37,47,26,28,8,12,5,20,8,25,12,1,4,3,4,1,5,6,1,1,4,2,1,1,1,2,2,4.375,5.25,3.5,1,7,2,1,7,"2",45,2,2,1,11,1,1,1,1,1,1,"27000","accounting","14","not working",1,0,0,"59"
"285","2OsQQK3Z","Short Term (Working) Memory",75,20,50,30,"Yes to treatment",77,1042.42499987595,2.5,36,47,41,37,47,26,28,8,12,5,20,8,25,12,1,4,3,4,1,5,6,1,1,4,2,1,1,1,2,2,4.375,5.25,3.5,1,7,2,1,7,"2",45,2,2,1,11,1,1,1,1,1,1,"27000","accounting","14","not working",1,0,0,"60"
"286","2OsQQK3Z","Short Term (Working) Memory",75,65,15,20,"No to treatment",90,963.725000154227,0.230769230769231,36,47,41,37,47,26,28,8,12,5,20,8,25,12,1,4,3,4,1,5,6,1,1,4,2,1,1,1,2,2,4.375,5.25,3.5,1,7,2,1,7,"2",45,2,2,1,11,1,1,1,1,1,1,"27000","accounting","14","not working",1,0,0,"61"
"287","2OsQQK3Z","Short Term (Working) Memory",75,40,40,20,"Yes to treatment",90,1917.01500001363,1,36,47,41,37,47,26,28,8,12,5,20,8,25,12,1,4,3,4,1,5,6,1,1,4,2,1,1,1,2,2,4.375,5.25,3.5,1,7,2,1,7,"2",45,2,2,1,11,1,1,1,1,1,1,"27000","accounting","14","not working",1,0,0,"62"
"288","2OsQQK3Z","Short Term (Working) Memory",75,55,40,5,"Yes to treatment",90,1412.17499994673,0.727272727272727,36,47,41,37,47,26,28,8,12,5,20,8,25,12,1,4,3,4,1,5,6,1,1,4,2,1,1,1,2,2,4.375,5.25,3.5,1,7,2,1,7,"2",45,2,2,1,11,1,1,1,1,1,1,"27000","accounting","14","not working",1,0,0,"63"
"289","2OsQQK3Z","Short Term (Working) Memory",75,10,50,40,"Yes to treatment",77,1788.05499989539,5,36,47,41,37,47,26,28,8,12,5,20,8,25,12,1,4,3,4,1,5,6,1,1,4,2,1,1,1,2,2,4.375,5.25,3.5,1,7,2,1,7,"2",45,2,2,1,11,1,1,1,1,1,1,"27000","accounting","14","not working",1,0,0,"64"
"290","2OsQQK3Z","Short Term (Working) Memory",75,60,15,25,"No to treatment",90,1004.2750001885,0.25,36,47,41,37,47,26,28,8,12,5,20,8,25,12,1,4,3,4,1,5,6,1,1,4,2,1,1,1,2,2,4.375,5.25,3.5,1,7,2,1,7,"2",45,2,2,1,11,1,1,1,1,1,1,"27000","accounting","14","not working",1,0,0,"65"
"291","2OsQQK3Z","Short Term (Working) Memory",75,25,30,45,"Yes to treatment",77,1076.33999991231,1.2,36,47,41,37,47,26,28,8,12,5,20,8,25,12,1,4,3,4,1,5,6,1,1,4,2,1,1,1,2,2,4.375,5.25,3.5,1,7,2,1,7,"2",45,2,2,1,11,1,1,1,1,1,1,"27000","accounting","14","not working",1,0,0,"66"
"292","2OsQQK3Z","Short Term (Working) Memory",75,10,40,50,"Yes to treatment",90,1323.96499998868,4,36,47,41,37,47,26,28,8,12,5,20,8,25,12,1,4,3,4,1,5,6,1,1,4,2,1,1,1,2,2,4.375,5.25,3.5,1,7,2,1,7,"2",45,2,2,1,11,1,1,1,1,1,1,"27000","accounting","14","not working",1,0,0,"67"
"293","2OsQQK3Z","Short Term (Working) Memory",75,50,45,5,"Yes to treatment",77,1133.42999992892,0.9,36,47,41,37,47,26,28,8,12,5,20,8,25,12,1,4,3,4,1,5,6,1,1,4,2,1,1,1,2,2,4.375,5.25,3.5,1,7,2,1,7,"2",45,2,2,1,11,1,1,1,1,1,1,"27000","accounting","14","not working",1,0,0,"68"
"294","2OsQQK3Z","Short Term (Working) Memory",75,35,20,45,"No to treatment",90,1788.18499995396,0.571428571428571,36,47,41,37,47,26,28,8,12,5,20,8,25,12,1,4,3,4,1,5,6,1,1,4,2,1,1,1,2,2,4.375,5.25,3.5,1,7,2,1,7,"2",45,2,2,1,11,1,1,1,1,1,1,"27000","accounting","14","not working",1,0,0,"69"
"295","2OsQQK3Z","Short Term (Working) Memory",75,50,35,15,"Yes to treatment",77,1108.09500003234,0.7,36,47,41,37,47,26,28,8,12,5,20,8,25,12,1,4,3,4,1,5,6,1,1,4,2,1,1,1,2,2,4.375,5.25,3.5,1,7,2,1,7,"2",45,2,2,1,11,1,1,1,1,1,1,"27000","accounting","14","not working",1,0,0,"70"
"296","2OsQQK3Z","Short Term (Working) Memory",75,90,5,5,"No to treatment",90,1827.68500014208,0.0555555555555556,36,47,41,37,47,26,28,8,12,5,20,8,25,12,1,4,3,4,1,5,6,1,1,4,2,1,1,1,2,2,4.375,5.25,3.5,1,7,2,1,7,"2",45,2,2,1,11,1,1,1,1,1,1,"27000","accounting","14","not working",1,0,0,"71"
"297","2OsQQK3Z","Short Term (Working) Memory",75,90,5,5,"No to treatment",90,708.129999926314,0.0555555555555556,36,47,41,37,47,26,28,8,12,5,20,8,25,12,1,4,3,4,1,5,6,1,1,4,2,1,1,1,2,2,4.375,5.25,3.5,1,7,2,1,7,"2",45,2,2,1,11,1,1,1,1,1,1,"27000","accounting","14","not working",1,0,0,"72"
"298","2OsQQK3Z","Short Term (Working) Memory",75,55,35,10,"Yes to treatment",77,813.044999958947,0.636363636363636,36,47,41,37,47,26,28,8,12,5,20,8,25,12,1,4,3,4,1,5,6,1,1,4,2,1,1,1,2,2,4.375,5.25,3.5,1,7,2,1,7,"2",45,2,2,1,11,1,1,1,1,1,1,"27000","accounting","14","not working",1,0,0,"73"
"299","2OsQQK3Z","Short Term (Working) Memory",75,40,30,30,"Yes to treatment",77,1484.58000016399,0.75,36,47,41,37,47,26,28,8,12,5,20,8,25,12,1,4,3,4,1,5,6,1,1,4,2,1,1,1,2,2,4.375,5.25,3.5,1,7,2,1,7,"2",45,2,2,1,11,1,1,1,1,1,1,"27000","accounting","14","not working",1,0,0,"74"
"300","2OsQQK3Z","Short Term (Working) Memory",75,85,5,10,"No to treatment",90,820.104999933392,0.0588235294117647,36,47,41,37,47,26,28,8,12,5,20,8,25,12,1,4,3,4,1,5,6,1,1,4,2,1,1,1,2,2,4.375,5.25,3.5,1,7,2,1,7,"2",45,2,2,1,11,1,1,1,1,1,1,"27000","accounting","14","not working",1,0,0,"75"
"301","2X1xhDjv","Self-control",75,25,35,40,"Yes to treatment",90,2490,1.4,34,34,39,36,36,28,26,15,22,15,24,17,19,19,1,6,1,4,1,4,6,3,4,5,2,1,1,1,1,1,4.25,4,4.5,1,1,7,1,3,"1",25,4,3,1,11,1,1,1,1,1,1,"4000","Accounting","18","Unemployed",3,1,0,"1"
"302","2X1xhDjv","Self-control",75,80,15,5,"No to treatment",90,1696,0.1875,34,34,39,36,36,28,26,15,22,15,24,17,19,19,1,6,1,4,1,4,6,3,4,5,2,1,1,1,1,1,4.25,4,4.5,1,1,7,1,3,"1",25,4,3,1,11,1,1,1,1,1,1,"4000","Accounting","18","Unemployed",3,1,0,"2"
"303","2X1xhDjv","Self-control",75,45,25,30,"No to treatment",77,2109,0.555555555555556,34,34,39,36,36,28,26,15,22,15,24,17,19,19,1,6,1,4,1,4,6,3,4,5,2,1,1,1,1,1,4.25,4,4.5,1,1,7,1,3,"1",25,4,3,1,11,1,1,1,1,1,1,"4000","Accounting","18","Unemployed",3,1,0,"3"
"304","2X1xhDjv","Self-control",75,65,25,10,"No to treatment",90,1392,0.384615384615385,34,34,39,36,36,28,26,15,22,15,24,17,19,19,1,6,1,4,1,4,6,3,4,5,2,1,1,1,1,1,4.25,4,4.5,1,1,7,1,3,"1",25,4,3,1,11,1,1,1,1,1,1,"4000","Accounting","18","Unemployed",3,1,0,"4"
"305","2X1xhDjv","Self-control",75,25,65,10,"Yes to treatment",90,1735,2.6,34,34,39,36,36,28,26,15,22,15,24,17,19,19,1,6,1,4,1,4,6,3,4,5,2,1,1,1,1,1,4.25,4,4.5,1,1,7,1,3,"1",25,4,3,1,11,1,1,1,1,1,1,"4000","Accounting","18","Unemployed",3,1,0,"5"
"306","2X1xhDjv","Self-control",75,15,20,65,"No to treatment",77,1606,1.33333333333333,34,34,39,36,36,28,26,15,22,15,24,17,19,19,1,6,1,4,1,4,6,3,4,5,2,1,1,1,1,1,4.25,4,4.5,1,1,7,1,3,"1",25,4,3,1,11,1,1,1,1,1,1,"4000","Accounting","18","Unemployed",3,1,0,"6"
"307","2X1xhDjv","Self-control",75,75,5,20,"No to treatment",77,1151,0.0666666666666667,34,34,39,36,36,28,26,15,22,15,24,17,19,19,1,6,1,4,1,4,6,3,4,5,2,1,1,1,1,1,4.25,4,4.5,1,1,7,1,3,"1",25,4,3,1,11,1,1,1,1,1,1,"4000","Accounting","18","Unemployed",3,1,0,"7"
"308","2X1xhDjv","Self-control",75,65,5,30,"No to treatment",90,965,0.0769230769230769,34,34,39,36,36,28,26,15,22,15,24,17,19,19,1,6,1,4,1,4,6,3,4,5,2,1,1,1,1,1,4.25,4,4.5,1,1,7,1,3,"1",25,4,3,1,11,1,1,1,1,1,1,"4000","Accounting","18","Unemployed",3,1,0,"8"
"309","2X1xhDjv","Self-control",75,15,80,5,"Yes to treatment",77,1571,5.33333333333333,34,34,39,36,36,28,26,15,22,15,24,17,19,19,1,6,1,4,1,4,6,3,4,5,2,1,1,1,1,1,4.25,4,4.5,1,1,7,1,3,"1",25,4,3,1,11,1,1,1,1,1,1,"4000","Accounting","18","Unemployed",3,1,0,"9"
"310","2X1xhDjv","Self-control",75,5,85,10,"Yes to treatment",77,1909,17,34,34,39,36,36,28,26,15,22,15,24,17,19,19,1,6,1,4,1,4,6,3,4,5,2,1,1,1,1,1,4.25,4,4.5,1,1,7,1,3,"1",25,4,3,1,11,1,1,1,1,1,1,"4000","Accounting","18","Unemployed",3,1,0,"10"
"311","2X1xhDjv","Self-control",75,80,15,5,"No to treatment",90,1190,0.1875,34,34,39,36,36,28,26,15,22,15,24,17,19,19,1,6,1,4,1,4,6,3,4,5,2,1,1,1,1,1,4.25,4,4.5,1,1,7,1,3,"1",25,4,3,1,11,1,1,1,1,1,1,"4000","Accounting","18","Unemployed",3,1,0,"11"
"312","2X1xhDjv","Self-control",75,5,30,65,"Yes to treatment",77,1450,6,34,34,39,36,36,28,26,15,22,15,24,17,19,19,1,6,1,4,1,4,6,3,4,5,2,1,1,1,1,1,4.25,4,4.5,1,1,7,1,3,"1",25,4,3,1,11,1,1,1,1,1,1,"4000","Accounting","18","Unemployed",3,1,0,"12"
"313","2X1xhDjv","Self-control",75,10,45,45,"Yes to treatment",90,1462,4.5,34,34,39,36,36,28,26,15,22,15,24,17,19,19,1,6,1,4,1,4,6,3,4,5,2,1,1,1,1,1,4.25,4,4.5,1,1,7,1,3,"1",25,4,3,1,11,1,1,1,1,1,1,"4000","Accounting","18","Unemployed",3,1,0,"13"
"314","2X1xhDjv","Self-control",75,65,25,10,"No to treatment",90,2146,0.384615384615385,34,34,39,36,36,28,26,15,22,15,24,17,19,19,1,6,1,4,1,4,6,3,4,5,2,1,1,1,1,1,4.25,4,4.5,1,1,7,1,3,"1",25,4,3,1,11,1,1,1,1,1,1,"4000","Accounting","18","Unemployed",3,1,0,"14"
"315","2X1xhDjv","Self-control",75,75,5,20,"No to treatment",77,936,0.0666666666666667,34,34,39,36,36,28,26,15,22,15,24,17,19,19,1,6,1,4,1,4,6,3,4,5,2,1,1,1,1,1,4.25,4,4.5,1,1,7,1,3,"1",25,4,3,1,11,1,1,1,1,1,1,"4000","Accounting","18","Unemployed",3,1,0,"15"
"316","2X1xhDjv","Self-control",75,5,55,40,"Yes to treatment",77,1389,11,34,34,39,36,36,28,26,15,22,15,24,17,19,19,1,6,1,4,1,4,6,3,4,5,2,1,1,1,1,1,4.25,4,4.5,1,1,7,1,3,"1",25,4,3,1,11,1,1,1,1,1,1,"4000","Accounting","18","Unemployed",3,1,0,"16"
"317","2X1xhDjv","Self-control",75,55,35,10,"No to treatment",77,880,0.636363636363636,34,34,39,36,36,28,26,15,22,15,24,17,19,19,1,6,1,4,1,4,6,3,4,5,2,1,1,1,1,1,4.25,4,4.5,1,1,7,1,3,"1",25,4,3,1,11,1,1,1,1,1,1,"4000","Accounting","18","Unemployed",3,1,0,"17"
"318","2X1xhDjv","Self-control",75,80,10,10,"No to treatment",77,946,0.125,34,34,39,36,36,28,26,15,22,15,24,17,19,19,1,6,1,4,1,4,6,3,4,5,2,1,1,1,1,1,4.25,4,4.5,1,1,7,1,3,"1",25,4,3,1,11,1,1,1,1,1,1,"4000","Accounting","18","Unemployed",3,1,0,"18"
"319","2X1xhDjv","Self-control",75,25,50,25,"Yes to treatment",90,2341,2,34,34,39,36,36,28,26,15,22,15,24,17,19,19,1,6,1,4,1,4,6,3,4,5,2,1,1,1,1,1,4.25,4,4.5,1,1,7,1,3,"1",25,4,3,1,11,1,1,1,1,1,1,"4000","Accounting","18","Unemployed",3,1,0,"19"
"320","2X1xhDjv","Self-control",75,40,50,10,"No to treatment",90,1263,1.25,34,34,39,36,36,28,26,15,22,15,24,17,19,19,1,6,1,4,1,4,6,3,4,5,2,1,1,1,1,1,4.25,4,4.5,1,1,7,1,3,"1",25,4,3,1,11,1,1,1,1,1,1,"4000","Accounting","18","Unemployed",3,1,0,"20"
"321","2X1xhDjv","Self-control",75,20,60,20,"Yes to treatment",90,1268,3,34,34,39,36,36,28,26,15,22,15,24,17,19,19,1,6,1,4,1,4,6,3,4,5,2,1,1,1,1,1,4.25,4,4.5,1,1,7,1,3,"1",25,4,3,1,11,1,1,1,1,1,1,"4000","Accounting","18","Unemployed",3,1,0,"21"
"322","2X1xhDjv","Self-control",75,90,5,5,"No to treatment",77,1419,0.0555555555555556,34,34,39,36,36,28,26,15,22,15,24,17,19,19,1,6,1,4,1,4,6,3,4,5,2,1,1,1,1,1,4.25,4,4.5,1,1,7,1,3,"1",25,4,3,1,11,1,1,1,1,1,1,"4000","Accounting","18","Unemployed",3,1,0,"22"
"323","2X1xhDjv","Self-control",75,25,25,50,"No to treatment",90,1693,1,34,34,39,36,36,28,26,15,22,15,24,17,19,19,1,6,1,4,1,4,6,3,4,5,2,1,1,1,1,1,4.25,4,4.5,1,1,7,1,3,"1",25,4,3,1,11,1,1,1,1,1,1,"4000","Accounting","18","Unemployed",3,1,0,"23"
"324","2X1xhDjv","Self-control",75,20,45,35,"Yes to treatment",77,4117,2.25,34,34,39,36,36,28,26,15,22,15,24,17,19,19,1,6,1,4,1,4,6,3,4,5,2,1,1,1,1,1,4.25,4,4.5,1,1,7,1,3,"1",25,4,3,1,11,1,1,1,1,1,1,"4000","Accounting","18","Unemployed",3,1,0,"24"
"325","2X1xhDjv","Self-control",75,85,5,10,"No to treatment",90,2141,0.0588235294117647,34,34,39,36,36,28,26,15,22,15,24,17,19,19,1,6,1,4,1,4,6,3,4,5,2,1,1,1,1,1,4.25,4,4.5,1,1,7,1,3,"1",25,4,3,1,11,1,1,1,1,1,1,"4000","Accounting","18","Unemployed",3,1,0,"25"
"326","2X1xhDjv","Self-control",75,75,15,10,"No to treatment",90,891,0.2,34,34,39,36,36,28,26,15,22,15,24,17,19,19,1,6,1,4,1,4,6,3,4,5,2,1,1,1,1,1,4.25,4,4.5,1,1,7,1,3,"1",25,4,3,1,11,1,1,1,1,1,1,"4000","Accounting","18","Unemployed",3,1,0,"26"
"327","2X1xhDjv","Self-control",75,60,25,15,"No to treatment",77,1166,0.416666666666667,34,34,39,36,36,28,26,15,22,15,24,17,19,19,1,6,1,4,1,4,6,3,4,5,2,1,1,1,1,1,4.25,4,4.5,1,1,7,1,3,"1",25,4,3,1,11,1,1,1,1,1,1,"4000","Accounting","18","Unemployed",3,1,0,"27"
"328","2X1xhDjv","Self-control",75,15,60,25,"Yes to treatment",90,963,4,34,34,39,36,36,28,26,15,22,15,24,17,19,19,1,6,1,4,1,4,6,3,4,5,2,1,1,1,1,1,4.25,4,4.5,1,1,7,1,3,"1",25,4,3,1,11,1,1,1,1,1,1,"4000","Accounting","18","Unemployed",3,1,0,"28"
"329","2X1xhDjv","Self-control",75,20,20,60,"Yes to treatment",77,4193,1,34,34,39,36,36,28,26,15,22,15,24,17,19,19,1,6,1,4,1,4,6,3,4,5,2,1,1,1,1,1,4.25,4,4.5,1,1,7,1,3,"1",25,4,3,1,11,1,1,1,1,1,1,"4000","Accounting","18","Unemployed",3,1,0,"29"
"330","2X1xhDjv","Self-control",75,35,50,15,"No to treatment",77,1377,1.42857142857143,34,34,39,36,36,28,26,15,22,15,24,17,19,19,1,6,1,4,1,4,6,3,4,5,2,1,1,1,1,1,4.25,4,4.5,1,1,7,1,3,"1",25,4,3,1,11,1,1,1,1,1,1,"4000","Accounting","18","Unemployed",3,1,0,"30"
"331","2X1xhDjv","Self-control",75,75,5,20,"No to treatment",90,1686,0.0666666666666667,34,34,39,36,36,28,26,15,22,15,24,17,19,19,1,6,1,4,1,4,6,3,4,5,2,1,1,1,1,1,4.25,4,4.5,1,1,7,1,3,"1",25,4,3,1,11,1,1,1,1,1,1,"4000","Accounting","18","Unemployed",3,1,0,"31"
"332","2X1xhDjv","Self-control",75,45,25,30,"No to treatment",90,2629,0.555555555555556,34,34,39,36,36,28,26,15,22,15,24,17,19,19,1,6,1,4,1,4,6,3,4,5,2,1,1,1,1,1,4.25,4,4.5,1,1,7,1,3,"1",25,4,3,1,11,1,1,1,1,1,1,"4000","Accounting","18","Unemployed",3,1,0,"32"
"333","2X1xhDjv","Self-control",75,90,5,5,"No to treatment",77,3426,0.0555555555555556,34,34,39,36,36,28,26,15,22,15,24,17,19,19,1,6,1,4,1,4,6,3,4,5,2,1,1,1,1,1,4.25,4,4.5,1,1,7,1,3,"1",25,4,3,1,11,1,1,1,1,1,1,"4000","Accounting","18","Unemployed",3,1,0,"33"
"334","2X1xhDjv","Self-control",75,90,5,5,"No to treatment",90,843,0.0555555555555556,34,34,39,36,36,28,26,15,22,15,24,17,19,19,1,6,1,4,1,4,6,3,4,5,2,1,1,1,1,1,4.25,4,4.5,1,1,7,1,3,"1",25,4,3,1,11,1,1,1,1,1,1,"4000","Accounting","18","Unemployed",3,1,0,"34"
"335","2X1xhDjv","Self-control",75,40,55,5,"No to treatment",90,2426,1.375,34,34,39,36,36,28,26,15,22,15,24,17,19,19,1,6,1,4,1,4,6,3,4,5,2,1,1,1,1,1,4.25,4,4.5,1,1,7,1,3,"1",25,4,3,1,11,1,1,1,1,1,1,"4000","Accounting","18","Unemployed",3,1,0,"35"
"336","2X1xhDjv","Self-control",75,80,10,10,"No to treatment",90,1115,0.125,34,34,39,36,36,28,26,15,22,15,24,17,19,19,1,6,1,4,1,4,6,3,4,5,2,1,1,1,1,1,4.25,4,4.5,1,1,7,1,3,"1",25,4,3,1,11,1,1,1,1,1,1,"4000","Accounting","18","Unemployed",3,1,0,"36"
"337","2X1xhDjv","Self-control",75,20,5,75,"No to treatment",90,1422,0.25,34,34,39,36,36,28,26,15,22,15,24,17,19,19,1,6,1,4,1,4,6,3,4,5,2,1,1,1,1,1,4.25,4,4.5,1,1,7,1,3,"1",25,4,3,1,11,1,1,1,1,1,1,"4000","Accounting","18","Unemployed",3,1,0,"37"
"338","2X1xhDjv","Self-control",75,40,10,50,"No to treatment",90,855,0.25,34,34,39,36,36,28,26,15,22,15,24,17,19,19,1,6,1,4,1,4,6,3,4,5,2,1,1,1,1,1,4.25,4,4.5,1,1,7,1,3,"1",25,4,3,1,11,1,1,1,1,1,1,"4000","Accounting","18","Unemployed",3,1,0,"38"
"339","2X1xhDjv","Self-control",75,45,20,35,"No to treatment",90,1504,0.444444444444444,34,34,39,36,36,28,26,15,22,15,24,17,19,19,1,6,1,4,1,4,6,3,4,5,2,1,1,1,1,1,4.25,4,4.5,1,1,7,1,3,"1",25,4,3,1,11,1,1,1,1,1,1,"4000","Accounting","18","Unemployed",3,1,0,"39"
"340","2X1xhDjv","Self-control",75,50,25,25,"No to treatment",77,2612,0.5,34,34,39,36,36,28,26,15,22,15,24,17,19,19,1,6,1,4,1,4,6,3,4,5,2,1,1,1,1,1,4.25,4,4.5,1,1,7,1,3,"1",25,4,3,1,11,1,1,1,1,1,1,"4000","Accounting","18","Unemployed",3,1,0,"40"
"341","2X1xhDjv","Self-control",75,15,30,55,"Yes to treatment",77,2206,2,34,34,39,36,36,28,26,15,22,15,24,17,19,19,1,6,1,4,1,4,6,3,4,5,2,1,1,1,1,1,4.25,4,4.5,1,1,7,1,3,"1",25,4,3,1,11,1,1,1,1,1,1,"4000","Accounting","18","Unemployed",3,1,0,"41"
"342","2X1xhDjv","Self-control",75,85,10,5,"No to treatment",77,1199,0.117647058823529,34,34,39,36,36,28,26,15,22,15,24,17,19,19,1,6,1,4,1,4,6,3,4,5,2,1,1,1,1,1,4.25,4,4.5,1,1,7,1,3,"1",25,4,3,1,11,1,1,1,1,1,1,"4000","Accounting","18","Unemployed",3,1,0,"42"
"343","2X1xhDjv","Self-control",75,60,5,35,"No to treatment",90,1462,0.0833333333333333,34,34,39,36,36,28,26,15,22,15,24,17,19,19,1,6,1,4,1,4,6,3,4,5,2,1,1,1,1,1,4.25,4,4.5,1,1,7,1,3,"1",25,4,3,1,11,1,1,1,1,1,1,"4000","Accounting","18","Unemployed",3,1,0,"43"
"344","2X1xhDjv","Self-control",75,10,45,45,"Yes to treatment",77,1588,4.5,34,34,39,36,36,28,26,15,22,15,24,17,19,19,1,6,1,4,1,4,6,3,4,5,2,1,1,1,1,1,4.25,4,4.5,1,1,7,1,3,"1",25,4,3,1,11,1,1,1,1,1,1,"4000","Accounting","18","Unemployed",3,1,0,"44"
"345","2X1xhDjv","Self-control",75,15,5,80,"No to treatment",77,2980,0.333333333333333,34,34,39,36,36,28,26,15,22,15,24,17,19,19,1,6,1,4,1,4,6,3,4,5,2,1,1,1,1,1,4.25,4,4.5,1,1,7,1,3,"1",25,4,3,1,11,1,1,1,1,1,1,"4000","Accounting","18","Unemployed",3,1,0,"45"
"346","2X1xhDjv","Self-control",75,45,10,45,"No to treatment",77,2088,0.222222222222222,34,34,39,36,36,28,26,15,22,15,24,17,19,19,1,6,1,4,1,4,6,3,4,5,2,1,1,1,1,1,4.25,4,4.5,1,1,7,1,3,"1",25,4,3,1,11,1,1,1,1,1,1,"4000","Accounting","18","Unemployed",3,1,0,"46"
"347","2X1xhDjv","Self-control",75,20,65,15,"Yes to treatment",90,1880,3.25,34,34,39,36,36,28,26,15,22,15,24,17,19,19,1,6,1,4,1,4,6,3,4,5,2,1,1,1,1,1,4.25,4,4.5,1,1,7,1,3,"1",25,4,3,1,11,1,1,1,1,1,1,"4000","Accounting","18","Unemployed",3,1,0,"47"
"348","2X1xhDjv","Self-control",75,50,15,35,"No to treatment",90,1363,0.3,34,34,39,36,36,28,26,15,22,15,24,17,19,19,1,6,1,4,1,4,6,3,4,5,2,1,1,1,1,1,4.25,4,4.5,1,1,7,1,3,"1",25,4,3,1,11,1,1,1,1,1,1,"4000","Accounting","18","Unemployed",3,1,0,"48"
"349","2X1xhDjv","Self-control",75,20,50,30,"Yes to treatment",77,1524,2.5,34,34,39,36,36,28,26,15,22,15,24,17,19,19,1,6,1,4,1,4,6,3,4,5,2,1,1,1,1,1,4.25,4,4.5,1,1,7,1,3,"1",25,4,3,1,11,1,1,1,1,1,1,"4000","Accounting","18","Unemployed",3,1,0,"49"
"350","2X1xhDjv","Self-control",75,55,10,35,"No to treatment",90,1064,0.181818181818182,34,34,39,36,36,28,26,15,22,15,24,17,19,19,1,6,1,4,1,4,6,3,4,5,2,1,1,1,1,1,4.25,4,4.5,1,1,7,1,3,"1",25,4,3,1,11,1,1,1,1,1,1,"4000","Accounting","18","Unemployed",3,1,0,"50"
"351","2X1xhDjv","Self-control",75,85,5,10,"No to treatment",90,973,0.0588235294117647,34,34,39,36,36,28,26,15,22,15,24,17,19,19,1,6,1,4,1,4,6,3,4,5,2,1,1,1,1,1,4.25,4,4.5,1,1,7,1,3,"1",25,4,3,1,11,1,1,1,1,1,1,"4000","Accounting","18","Unemployed",3,1,0,"51"
"352","2X1xhDjv","Self-control",75,30,55,15,"No to treatment",90,1385,1.83333333333333,34,34,39,36,36,28,26,15,22,15,24,17,19,19,1,6,1,4,1,4,6,3,4,5,2,1,1,1,1,1,4.25,4,4.5,1,1,7,1,3,"1",25,4,3,1,11,1,1,1,1,1,1,"4000","Accounting","18","Unemployed",3,1,0,"52"
"353","2X1xhDjv","Self-control",75,80,15,5,"No to treatment",90,1320,0.1875,34,34,39,36,36,28,26,15,22,15,24,17,19,19,1,6,1,4,1,4,6,3,4,5,2,1,1,1,1,1,4.25,4,4.5,1,1,7,1,3,"1",25,4,3,1,11,1,1,1,1,1,1,"4000","Accounting","18","Unemployed",3,1,0,"53"
"354","2X1xhDjv","Self-control",75,50,45,5,"No to treatment",90,1212,0.9,34,34,39,36,36,28,26,15,22,15,24,17,19,19,1,6,1,4,1,4,6,3,4,5,2,1,1,1,1,1,4.25,4,4.5,1,1,7,1,3,"1",25,4,3,1,11,1,1,1,1,1,1,"4000","Accounting","18","Unemployed",3,1,0,"54"
"355","2X1xhDjv","Self-control",75,15,15,70,"No to treatment",77,1216,1,34,34,39,36,36,28,26,15,22,15,24,17,19,19,1,6,1,4,1,4,6,3,4,5,2,1,1,1,1,1,4.25,4,4.5,1,1,7,1,3,"1",25,4,3,1,11,1,1,1,1,1,1,"4000","Accounting","18","Unemployed",3,1,0,"55"
"356","2X1xhDjv","Self-control",75,20,65,15,"Yes to treatment",90,1612,3.25,34,34,39,36,36,28,26,15,22,15,24,17,19,19,1,6,1,4,1,4,6,3,4,5,2,1,1,1,1,1,4.25,4,4.5,1,1,7,1,3,"1",25,4,3,1,11,1,1,1,1,1,1,"4000","Accounting","18","Unemployed",3,1,0,"56"
"357","2X1xhDjv","Self-control",75,70,25,5,"No to treatment",77,852,0.357142857142857,34,34,39,36,36,28,26,15,22,15,24,17,19,19,1,6,1,4,1,4,6,3,4,5,2,1,1,1,1,1,4.25,4,4.5,1,1,7,1,3,"1",25,4,3,1,11,1,1,1,1,1,1,"4000","Accounting","18","Unemployed",3,1,0,"57"
"358","2X1xhDjv","Self-control",75,35,20,45,"No to treatment",77,845,0.571428571428571,34,34,39,36,36,28,26,15,22,15,24,17,19,19,1,6,1,4,1,4,6,3,4,5,2,1,1,1,1,1,4.25,4,4.5,1,1,7,1,3,"1",25,4,3,1,11,1,1,1,1,1,1,"4000","Accounting","18","Unemployed",3,1,0,"58"
"359","2X1xhDjv","Self-control",75,85,5,10,"No to treatment",90,1583,0.0588235294117647,34,34,39,36,36,28,26,15,22,15,24,17,19,19,1,6,1,4,1,4,6,3,4,5,2,1,1,1,1,1,4.25,4,4.5,1,1,7,1,3,"1",25,4,3,1,11,1,1,1,1,1,1,"4000","Accounting","18","Unemployed",3,1,0,"59"
"360","2X1xhDjv","Self-control",75,60,30,10,"No to treatment",77,880,0.5,34,34,39,36,36,28,26,15,22,15,24,17,19,19,1,6,1,4,1,4,6,3,4,5,2,1,1,1,1,1,4.25,4,4.5,1,1,7,1,3,"1",25,4,3,1,11,1,1,1,1,1,1,"4000","Accounting","18","Unemployed",3,1,0,"60"
"361","2X1xhDjv","Self-control",75,10,80,10,"Yes to treatment",90,1963,8,34,34,39,36,36,28,26,15,22,15,24,17,19,19,1,6,1,4,1,4,6,3,4,5,2,1,1,1,1,1,4.25,4,4.5,1,1,7,1,3,"1",25,4,3,1,11,1,1,1,1,1,1,"4000","Accounting","18","Unemployed",3,1,0,"61"
