"","user_id","condition","total_trials","risk","gain","no_effect","experimental_treatment_selected","key_press","rt","ratio","Extraversion","Agreeableness","Conscientiousness","Negative_Emotionality","Open_Mindedness","Harm","Fairness","Loyalty","Athority","Sancticy","PerspectiveTaking","Fantasy","EmpathicConcern","PersonalDistress","POWER","ACHIEVEMENT","HEDONISM","STIMULATION","SELF.DIRECTION","UNIVERSALISM","BENEVOLENCE","TRADITION","CONFORMITY","SECURITY","Lying","Assasination","Torture","Murder","Stealing","ForcedSterilization","SNS.total","SNS.ability","SNS.preference","GRiPs.score","republican","democrat","independent","conservative","liberal","sex","age_4","race_ethnicity","education","ReligionRaised","ReligionNow","Religiosity","Spirituality","AttendChurch","ReligiousActivity","meditation","RelationshipStatus","Income","Major","YearOfEducation","EmploymentStatus","Political_Party","HumanMind","Optimize","trial_index","risk_c","gain_c","Intercept","Risk_Beta","Gain_Beta","Interaction_Beta","Risk_sig","Gain_sig","Interaction_sig"
"1","0DeJj31H","Short Term (Working) Memory",75,50,10,40,"Yes to treatment",77,769.109999997425,0.2,45,47,38,37,43,18,21,19,22,20,15,14,16,17,6,7,5,6,7,5,6,5,6,5,1,2,2,1,2,0,4.25,4.25,4.25,NA,4,5,4,5,6,"1",29,4,4,6,6,2,2,3,3,5,3,"25000","Computer","19","software",2,0,1,"1",1.33333333333334,-15.2,90239.8918663254,0.765124203515772,0.607843956576987,0.997369322463441,0,0,0
"2","0DeJj31H","Short Term (Working) Memory",75,50,5,45,"Yes to treatment",90,556.774999997288,0.1,45,47,38,37,43,18,21,19,22,20,15,14,16,17,6,7,5,6,7,5,6,5,6,5,1,2,2,1,2,0,4.25,4.25,4.25,NA,4,5,4,5,6,"1",29,4,4,6,6,2,2,3,3,5,3,"25000","Computer","19","software",2,0,1,"2",1.33333333333334,-20.2,90239.8918663254,0.765124203515772,0.607843956576987,0.997369322463441,0,0,0
"3","0DeJj31H","Short Term (Working) Memory",75,5,80,15,"Yes to treatment",77,527.539999999164,16,45,47,38,37,43,18,21,19,22,20,15,14,16,17,6,7,5,6,7,5,6,5,6,5,1,2,2,1,2,0,4.25,4.25,4.25,NA,4,5,4,5,6,"1",29,4,4,6,6,2,2,3,3,5,3,"25000","Computer","19","software",2,0,1,"3",-43.6666666666667,54.8,90239.8918663254,0.765124203515772,0.607843956576987,0.997369322463441,0,0,0
"4","0DeJj31H","Short Term (Working) Memory",75,90,5,5,"Yes to treatment",90,1378.32499999786,0.0555555555555556,45,47,38,37,43,18,21,19,22,20,15,14,16,17,6,7,5,6,7,5,6,5,6,5,1,2,2,1,2,0,4.25,4.25,4.25,NA,4,5,4,5,6,"1",29,4,4,6,6,2,2,3,3,5,3,"25000","Computer","19","software",2,0,1,"4",41.3333333333333,-20.2,90239.8918663254,0.765124203515772,0.607843956576987,0.997369322463441,0,0,0
"5","0DeJj31H","Short Term (Working) Memory",75,55,10,35,"Yes to treatment",90,739.205000001704,0.181818181818182,45,47,38,37,43,18,21,19,22,20,15,14,16,17,6,7,5,6,7,5,6,5,6,5,1,2,2,1,2,0,4.25,4.25,4.25,NA,4,5,4,5,6,"1",29,4,4,6,6,2,2,3,3,5,3,"25000","Computer","19","software",2,0,1,"5",6.33333333333334,-15.2,90239.8918663254,0.765124203515772,0.607843956576987,0.997369322463441,0,0,0
"6","0DeJj31H","Short Term (Working) Memory",75,15,15,70,"Yes to treatment",77,1202.40000000194,1,45,47,38,37,43,18,21,19,22,20,15,14,16,17,6,7,5,6,7,5,6,5,6,5,1,2,2,1,2,0,4.25,4.25,4.25,NA,4,5,4,5,6,"1",29,4,4,6,6,2,2,3,3,5,3,"25000","Computer","19","software",2,0,1,"6",-33.6666666666667,-10.2,90239.8918663254,0.765124203515772,0.607843956576987,0.997369322463441,0,0,0
"7","0DeJj31H","Short Term (Working) Memory",75,45,20,35,"Yes to treatment",90,656.254999998026,0.444444444444444,45,47,38,37,43,18,21,19,22,20,15,14,16,17,6,7,5,6,7,5,6,5,6,5,1,2,2,1,2,0,4.25,4.25,4.25,NA,4,5,4,5,6,"1",29,4,4,6,6,2,2,3,3,5,3,"25000","Computer","19","software",2,0,1,"7",-3.66666666666666,-5.2,90239.8918663254,0.765124203515772,0.607843956576987,0.997369322463441,0,0,0
"8","0DeJj31H","Short Term (Working) Memory",75,5,70,25,"Yes to treatment",77,685.760000000359,14,45,47,38,37,43,18,21,19,22,20,15,14,16,17,6,7,5,6,7,5,6,5,6,5,1,2,2,1,2,0,4.25,4.25,4.25,NA,4,5,4,5,6,"1",29,4,4,6,6,2,2,3,3,5,3,"25000","Computer","19","software",2,0,1,"8",-43.6666666666667,44.8,90239.8918663254,0.765124203515772,0.607843956576987,0.997369322463441,0,0,0
"9","0DeJj31H","Short Term (Working) Memory",75,40,30,30,"Yes to treatment",90,493.764999999257,0.75,45,47,38,37,43,18,21,19,22,20,15,14,16,17,6,7,5,6,7,5,6,5,6,5,1,2,2,1,2,0,4.25,4.25,4.25,NA,4,5,4,5,6,"1",29,4,4,6,6,2,2,3,3,5,3,"25000","Computer","19","software",2,0,1,"9",-8.66666666666666,4.8,90239.8918663254,0.765124203515772,0.607843956576987,0.997369322463441,0,0,0
"10","0DeJj31H","Short Term (Working) Memory",75,50,20,30,"Yes to treatment",77,528.854999996838,0.4,45,47,38,37,43,18,21,19,22,20,15,14,16,17,6,7,5,6,7,5,6,5,6,5,1,2,2,1,2,0,4.25,4.25,4.25,NA,4,5,4,5,6,"1",29,4,4,6,6,2,2,3,3,5,3,"25000","Computer","19","software",2,0,1,"10",1.33333333333334,-5.2,90239.8918663254,0.765124203515772,0.607843956576987,0.997369322463441,0,0,0
"11","0DeJj31H","Short Term (Working) Memory",75,50,25,25,"Yes to treatment",90,467.574999998789,0.5,45,47,38,37,43,18,21,19,22,20,15,14,16,17,6,7,5,6,7,5,6,5,6,5,1,2,2,1,2,0,4.25,4.25,4.25,NA,4,5,4,5,6,"1",29,4,4,6,6,2,2,3,3,5,3,"25000","Computer","19","software",2,0,1,"11",1.33333333333334,-0.199999999999999,90239.8918663254,0.765124203515772,0.607843956576987,0.997369322463441,0,0,0
"12","0DeJj31H","Short Term (Working) Memory",75,5,5,90,"Yes to treatment",77,631.754999998491,1,45,47,38,37,43,18,21,19,22,20,15,14,16,17,6,7,5,6,7,5,6,5,6,5,1,2,2,1,2,0,4.25,4.25,4.25,NA,4,5,4,5,6,"1",29,4,4,6,6,2,2,3,3,5,3,"25000","Computer","19","software",2,0,1,"12",-43.6666666666667,-20.2,90239.8918663254,0.765124203515772,0.607843956576987,0.997369322463441,0,0,0
"13","0DeJj31H","Short Term (Working) Memory",75,10,25,65,"Yes to treatment",90,842.889999999898,2.5,45,47,38,37,43,18,21,19,22,20,15,14,16,17,6,7,5,6,7,5,6,5,6,5,1,2,2,1,2,0,4.25,4.25,4.25,NA,4,5,4,5,6,"1",29,4,4,6,6,2,2,3,3,5,3,"25000","Computer","19","software",2,0,1,"13",-38.6666666666667,-0.199999999999999,90239.8918663254,0.765124203515772,0.607843956576987,0.997369322463441,0,0,0
"14","0DeJj31H","Short Term (Working) Memory",75,5,5,90,"Yes to treatment",77,666.454999998678,1,45,47,38,37,43,18,21,19,22,20,15,14,16,17,6,7,5,6,7,5,6,5,6,5,1,2,2,1,2,0,4.25,4.25,4.25,NA,4,5,4,5,6,"1",29,4,4,6,6,2,2,3,3,5,3,"25000","Computer","19","software",2,0,1,"14",-43.6666666666667,-20.2,90239.8918663254,0.765124203515772,0.607843956576987,0.997369322463441,0,0,0
"15","0DeJj31H","Short Term (Working) Memory",75,90,5,5,"Yes to treatment",77,531.34499999939,0.0555555555555556,45,47,38,37,43,18,21,19,22,20,15,14,16,17,6,7,5,6,7,5,6,5,6,5,1,2,2,1,2,0,4.25,4.25,4.25,NA,4,5,4,5,6,"1",29,4,4,6,6,2,2,3,3,5,3,"25000","Computer","19","software",2,0,1,"15",41.3333333333333,-20.2,90239.8918663254,0.765124203515772,0.607843956576987,0.997369322463441,0,0,0
"16","0DeJj31H","Short Term (Working) Memory",75,70,20,10,"Yes to treatment",77,484.019999999902,0.285714285714286,45,47,38,37,43,18,21,19,22,20,15,14,16,17,6,7,5,6,7,5,6,5,6,5,1,2,2,1,2,0,4.25,4.25,4.25,NA,4,5,4,5,6,"1",29,4,4,6,6,2,2,3,3,5,3,"25000","Computer","19","software",2,0,1,"16",21.3333333333333,-5.2,90239.8918663254,0.765124203515772,0.607843956576987,0.997369322463441,0,0,0
"17","0DeJj31H","Short Term (Working) Memory",75,10,80,10,"Yes to treatment",77,652.865000000049,8,45,47,38,37,43,18,21,19,22,20,15,14,16,17,6,7,5,6,7,5,6,5,6,5,1,2,2,1,2,0,4.25,4.25,4.25,NA,4,5,4,5,6,"1",29,4,4,6,6,2,2,3,3,5,3,"25000","Computer","19","software",2,0,1,"17",-38.6666666666667,54.8,90239.8918663254,0.765124203515772,0.607843956576987,0.997369322463441,0,0,0
"18","0DeJj31H","Short Term (Working) Memory",75,35,20,45,"Yes to treatment",77,4517.01499999769,0.571428571428571,45,47,38,37,43,18,21,19,22,20,15,14,16,17,6,7,5,6,7,5,6,5,6,5,1,2,2,1,2,0,4.25,4.25,4.25,NA,4,5,4,5,6,"1",29,4,4,6,6,2,2,3,3,5,3,"25000","Computer","19","software",2,0,1,"18",-13.6666666666667,-5.2,90239.8918663254,0.765124203515772,0.607843956576987,0.997369322463441,0,0,0
"19","0DeJj31H","Short Term (Working) Memory",75,45,40,15,"Yes to treatment",77,599.425000000279,0.888888888888889,45,47,38,37,43,18,21,19,22,20,15,14,16,17,6,7,5,6,7,5,6,5,6,5,1,2,2,1,2,0,4.25,4.25,4.25,NA,4,5,4,5,6,"1",29,4,4,6,6,2,2,3,3,5,3,"25000","Computer","19","software",2,0,1,"19",-3.66666666666666,14.8,90239.8918663254,0.765124203515772,0.607843956576987,0.997369322463441,0,0,0
"20","0DeJj31H","Short Term (Working) Memory",75,90,5,5,"Yes to treatment",77,591.550000001094,0.0555555555555556,45,47,38,37,43,18,21,19,22,20,15,14,16,17,6,7,5,6,7,5,6,5,6,5,1,2,2,1,2,0,4.25,4.25,4.25,NA,4,5,4,5,6,"1",29,4,4,6,6,2,2,3,3,5,3,"25000","Computer","19","software",2,0,1,"20",41.3333333333333,-20.2,90239.8918663254,0.765124203515772,0.607843956576987,0.997369322463441,0,0,0
"21","0DeJj31H","Short Term (Working) Memory",75,40,30,30,"Yes to treatment",77,611.049999999464,0.75,45,47,38,37,43,18,21,19,22,20,15,14,16,17,6,7,5,6,7,5,6,5,6,5,1,2,2,1,2,0,4.25,4.25,4.25,NA,4,5,4,5,6,"1",29,4,4,6,6,2,2,3,3,5,3,"25000","Computer","19","software",2,0,1,"21",-8.66666666666666,4.8,90239.8918663254,0.765124203515772,0.607843956576987,0.997369322463441,0,0,0
"22","0DeJj31H","Short Term (Working) Memory",75,20,65,15,"Yes to treatment",90,5318.48000000173,3.25,45,47,38,37,43,18,21,19,22,20,15,14,16,17,6,7,5,6,7,5,6,5,6,5,1,2,2,1,2,0,4.25,4.25,4.25,NA,4,5,4,5,6,"1",29,4,4,6,6,2,2,3,3,5,3,"25000","Computer","19","software",2,0,1,"22",-28.6666666666667,39.8,90239.8918663254,0.765124203515772,0.607843956576987,0.997369322463441,0,0,0
"23","0DeJj31H","Short Term (Working) Memory",75,50,30,20,"Yes to treatment",90,924.739999998594,0.6,45,47,38,37,43,18,21,19,22,20,15,14,16,17,6,7,5,6,7,5,6,5,6,5,1,2,2,1,2,0,4.25,4.25,4.25,NA,4,5,4,5,6,"1",29,4,4,6,6,2,2,3,3,5,3,"25000","Computer","19","software",2,0,1,"23",1.33333333333334,4.8,90239.8918663254,0.765124203515772,0.607843956576987,0.997369322463441,0,0,0
"24","0DeJj31H","Short Term (Working) Memory",75,10,75,15,"Yes to treatment",90,738.570000001462,7.5,45,47,38,37,43,18,21,19,22,20,15,14,16,17,6,7,5,6,7,5,6,5,6,5,1,2,2,1,2,0,4.25,4.25,4.25,NA,4,5,4,5,6,"1",29,4,4,6,6,2,2,3,3,5,3,"25000","Computer","19","software",2,0,1,"24",-38.6666666666667,49.8,90239.8918663254,0.765124203515772,0.607843956576987,0.997369322463441,0,0,0
"25","0DeJj31H","Short Term (Working) Memory",75,80,15,5,"Yes to treatment",90,658.250000000466,0.1875,45,47,38,37,43,18,21,19,22,20,15,14,16,17,6,7,5,6,7,5,6,5,6,5,1,2,2,1,2,0,4.25,4.25,4.25,NA,4,5,4,5,6,"1",29,4,4,6,6,2,2,3,3,5,3,"25000","Computer","19","software",2,0,1,"25",31.3333333333333,-10.2,90239.8918663254,0.765124203515772,0.607843956576987,0.997369322463441,0,0,0
"26","0DeJj31H","Short Term (Working) Memory",75,20,65,15,"Yes to treatment",77,600.084999998217,3.25,45,47,38,37,43,18,21,19,22,20,15,14,16,17,6,7,5,6,7,5,6,5,6,5,1,2,2,1,2,0,4.25,4.25,4.25,NA,4,5,4,5,6,"1",29,4,4,6,6,2,2,3,3,5,3,"25000","Computer","19","software",2,0,1,"26",-28.6666666666667,39.8,90239.8918663254,0.765124203515772,0.607843956576987,0.997369322463441,0,0,0
"27","0DeJj31H","Short Term (Working) Memory",75,90,5,5,"Yes to treatment",90,922.650000000431,0.0555555555555556,45,47,38,37,43,18,21,19,22,20,15,14,16,17,6,7,5,6,7,5,6,5,6,5,1,2,2,1,2,0,4.25,4.25,4.25,NA,4,5,4,5,6,"1",29,4,4,6,6,2,2,3,3,5,3,"25000","Computer","19","software",2,0,1,"27",41.3333333333333,-20.2,90239.8918663254,0.765124203515772,0.607843956576987,0.997369322463441,0,0,0
"28","0DeJj31H","Short Term (Working) Memory",75,55,20,25,"Yes to treatment",90,605.51000000129,0.363636363636364,45,47,38,37,43,18,21,19,22,20,15,14,16,17,6,7,5,6,7,5,6,5,6,5,1,2,2,1,2,0,4.25,4.25,4.25,NA,4,5,4,5,6,"1",29,4,4,6,6,2,2,3,3,5,3,"25000","Computer","19","software",2,0,1,"28",6.33333333333334,-5.2,90239.8918663254,0.765124203515772,0.607843956576987,0.997369322463441,0,0,0
"29","0DeJj31H","Short Term (Working) Memory",75,85,10,5,"Yes to treatment",77,647.639999999199,0.117647058823529,45,47,38,37,43,18,21,19,22,20,15,14,16,17,6,7,5,6,7,5,6,5,6,5,1,2,2,1,2,0,4.25,4.25,4.25,NA,4,5,4,5,6,"1",29,4,4,6,6,2,2,3,3,5,3,"25000","Computer","19","software",2,0,1,"29",36.3333333333333,-15.2,90239.8918663254,0.765124203515772,0.607843956576987,0.997369322463441,0,0,0
"30","0DeJj31H","Short Term (Working) Memory",75,35,25,40,"Yes to treatment",77,566.35499999905,0.714285714285714,45,47,38,37,43,18,21,19,22,20,15,14,16,17,6,7,5,6,7,5,6,5,6,5,1,2,2,1,2,0,4.25,4.25,4.25,NA,4,5,4,5,6,"1",29,4,4,6,6,2,2,3,3,5,3,"25000","Computer","19","software",2,0,1,"30",-13.6666666666667,-0.199999999999999,90239.8918663254,0.765124203515772,0.607843956576987,0.997369322463441,0,0,0
"31","0DeJj31H","Short Term (Working) Memory",75,70,15,15,"Yes to treatment",90,581.060000000522,0.214285714285714,45,47,38,37,43,18,21,19,22,20,15,14,16,17,6,7,5,6,7,5,6,5,6,5,1,2,2,1,2,0,4.25,4.25,4.25,NA,4,5,4,5,6,"1",29,4,4,6,6,2,2,3,3,5,3,"25000","Computer","19","software",2,0,1,"31",21.3333333333333,-10.2,90239.8918663254,0.765124203515772,0.607843956576987,0.997369322463441,0,0,0
"32","0DeJj31H","Short Term (Working) Memory",75,90,5,5,"Yes to treatment",90,626.619999999064,0.0555555555555556,45,47,38,37,43,18,21,19,22,20,15,14,16,17,6,7,5,6,7,5,6,5,6,5,1,2,2,1,2,0,4.25,4.25,4.25,NA,4,5,4,5,6,"1",29,4,4,6,6,2,2,3,3,5,3,"25000","Computer","19","software",2,0,1,"32",41.3333333333333,-20.2,90239.8918663254,0.765124203515772,0.607843956576987,0.997369322463441,0,0,0
"33","0DeJj31H","Short Term (Working) Memory",75,60,10,30,"Yes to treatment",77,605.459999998799,0.166666666666667,45,47,38,37,43,18,21,19,22,20,15,14,16,17,6,7,5,6,7,5,6,5,6,5,1,2,2,1,2,0,4.25,4.25,4.25,NA,4,5,4,5,6,"1",29,4,4,6,6,2,2,3,3,5,3,"25000","Computer","19","software",2,0,1,"33",11.3333333333333,-15.2,90239.8918663254,0.765124203515772,0.607843956576987,0.997369322463441,0,0,0
"34","0DeJj31H","Short Term (Working) Memory",75,90,5,5,"Yes to treatment",90,529.160000001837,0.0555555555555556,45,47,38,37,43,18,21,19,22,20,15,14,16,17,6,7,5,6,7,5,6,5,6,5,1,2,2,1,2,0,4.25,4.25,4.25,NA,4,5,4,5,6,"1",29,4,4,6,6,2,2,3,3,5,3,"25000","Computer","19","software",2,0,1,"34",41.3333333333333,-20.2,90239.8918663254,0.765124203515772,0.607843956576987,0.997369322463441,0,0,0
"35","0DeJj31H","Short Term (Working) Memory",75,15,10,75,"Yes to treatment",77,597.695000000356,0.666666666666667,45,47,38,37,43,18,21,19,22,20,15,14,16,17,6,7,5,6,7,5,6,5,6,5,1,2,2,1,2,0,4.25,4.25,4.25,NA,4,5,4,5,6,"1",29,4,4,6,6,2,2,3,3,5,3,"25000","Computer","19","software",2,0,1,"35",-33.6666666666667,-15.2,90239.8918663254,0.765124203515772,0.607843956576987,0.997369322463441,0,0,0
"36","0DeJj31H","Short Term (Working) Memory",75,15,50,35,"Yes to treatment",90,1063.27000000241,3.33333333333333,45,47,38,37,43,18,21,19,22,20,15,14,16,17,6,7,5,6,7,5,6,5,6,5,1,2,2,1,2,0,4.25,4.25,4.25,NA,4,5,4,5,6,"1",29,4,4,6,6,2,2,3,3,5,3,"25000","Computer","19","software",2,0,1,"36",-33.6666666666667,24.8,90239.8918663254,0.765124203515772,0.607843956576987,0.997369322463441,0,0,0
"37","0DeJj31H","Short Term (Working) Memory",75,10,25,65,"Yes to treatment",90,895.349999998871,2.5,45,47,38,37,43,18,21,19,22,20,15,14,16,17,6,7,5,6,7,5,6,5,6,5,1,2,2,1,2,0,4.25,4.25,4.25,NA,4,5,4,5,6,"1",29,4,4,6,6,2,2,3,3,5,3,"25000","Computer","19","software",2,0,1,"37",-38.6666666666667,-0.199999999999999,90239.8918663254,0.765124203515772,0.607843956576987,0.997369322463441,0,0,0
"38","0DeJj31H","Short Term (Working) Memory",75,35,55,10,"No to treatment",90,485.800000002142,1.57142857142857,45,47,38,37,43,18,21,19,22,20,15,14,16,17,6,7,5,6,7,5,6,5,6,5,1,2,2,1,2,0,4.25,4.25,4.25,NA,4,5,4,5,6,"1",29,4,4,6,6,2,2,3,3,5,3,"25000","Computer","19","software",2,0,1,"38",-13.6666666666667,29.8,90239.8918663254,0.765124203515772,0.607843956576987,0.997369322463441,0,0,0
"39","0DeJj31H","Short Term (Working) Memory",75,45,50,5,"Yes to treatment",90,578.63499999803,1.11111111111111,45,47,38,37,43,18,21,19,22,20,15,14,16,17,6,7,5,6,7,5,6,5,6,5,1,2,2,1,2,0,4.25,4.25,4.25,NA,4,5,4,5,6,"1",29,4,4,6,6,2,2,3,3,5,3,"25000","Computer","19","software",2,0,1,"39",-3.66666666666666,24.8,90239.8918663254,0.765124203515772,0.607843956576987,0.997369322463441,0,0,0
"40","0DeJj31H","Short Term (Working) Memory",75,30,30,40,"Yes to treatment",90,666.32000000024,1,45,47,38,37,43,18,21,19,22,20,15,14,16,17,6,7,5,6,7,5,6,5,6,5,1,2,2,1,2,0,4.25,4.25,4.25,NA,4,5,4,5,6,"1",29,4,4,6,6,2,2,3,3,5,3,"25000","Computer","19","software",2,0,1,"40",-18.6666666666667,4.8,90239.8918663254,0.765124203515772,0.607843956576987,0.997369322463441,0,0,0
"41","0DeJj31H","Short Term (Working) Memory",75,65,10,25,"Yes to treatment",77,3171.66500000167,0.153846153846154,45,47,38,37,43,18,21,19,22,20,15,14,16,17,6,7,5,6,7,5,6,5,6,5,1,2,2,1,2,0,4.25,4.25,4.25,NA,4,5,4,5,6,"1",29,4,4,6,6,2,2,3,3,5,3,"25000","Computer","19","software",2,0,1,"41",16.3333333333333,-15.2,90239.8918663254,0.765124203515772,0.607843956576987,0.997369322463441,0,0,0
"42","0DeJj31H","Short Term (Working) Memory",75,75,15,10,"Yes to treatment",90,575.494999997318,0.2,45,47,38,37,43,18,21,19,22,20,15,14,16,17,6,7,5,6,7,5,6,5,6,5,1,2,2,1,2,0,4.25,4.25,4.25,NA,4,5,4,5,6,"1",29,4,4,6,6,2,2,3,3,5,3,"25000","Computer","19","software",2,0,1,"42",26.3333333333333,-10.2,90239.8918663254,0.765124203515772,0.607843956576987,0.997369322463441,0,0,0
"43","0DeJj31H","Short Term (Working) Memory",75,65,20,15,"Yes to treatment",77,609.85500000231,0.307692307692308,45,47,38,37,43,18,21,19,22,20,15,14,16,17,6,7,5,6,7,5,6,5,6,5,1,2,2,1,2,0,4.25,4.25,4.25,NA,4,5,4,5,6,"1",29,4,4,6,6,2,2,3,3,5,3,"25000","Computer","19","software",2,0,1,"43",16.3333333333333,-5.2,90239.8918663254,0.765124203515772,0.607843956576987,0.997369322463441,0,0,0
"44","0DeJj31H","Short Term (Working) Memory",75,35,30,35,"Yes to treatment",90,516.634999999893,0.857142857142857,45,47,38,37,43,18,21,19,22,20,15,14,16,17,6,7,5,6,7,5,6,5,6,5,1,2,2,1,2,0,4.25,4.25,4.25,NA,4,5,4,5,6,"1",29,4,4,6,6,2,2,3,3,5,3,"25000","Computer","19","software",2,0,1,"44",-13.6666666666667,4.8,90239.8918663254,0.765124203515772,0.607843956576987,0.997369322463441,0,0,0
"45","0DeJj31H","Short Term (Working) Memory",75,30,45,25,"Yes to treatment",77,506.805000000866,1.5,45,47,38,37,43,18,21,19,22,20,15,14,16,17,6,7,5,6,7,5,6,5,6,5,1,2,2,1,2,0,4.25,4.25,4.25,NA,4,5,4,5,6,"1",29,4,4,6,6,2,2,3,3,5,3,"25000","Computer","19","software",2,0,1,"45",-18.6666666666667,19.8,90239.8918663254,0.765124203515772,0.607843956576987,0.997369322463441,0,0,0
"46","0DeJj31H","Short Term (Working) Memory",75,35,30,35,"Yes to treatment",90,598.40500000061,0.857142857142857,45,47,38,37,43,18,21,19,22,20,15,14,16,17,6,7,5,6,7,5,6,5,6,5,1,2,2,1,2,0,4.25,4.25,4.25,NA,4,5,4,5,6,"1",29,4,4,6,6,2,2,3,3,5,3,"25000","Computer","19","software",2,0,1,"46",-13.6666666666667,4.8,90239.8918663254,0.765124203515772,0.607843956576987,0.997369322463441,0,0,0
"47","0DeJj31H","Short Term (Working) Memory",75,30,20,50,"Yes to treatment",77,687.955000001239,0.666666666666667,45,47,38,37,43,18,21,19,22,20,15,14,16,17,6,7,5,6,7,5,6,5,6,5,1,2,2,1,2,0,4.25,4.25,4.25,NA,4,5,4,5,6,"1",29,4,4,6,6,2,2,3,3,5,3,"25000","Computer","19","software",2,0,1,"47",-18.6666666666667,-5.2,90239.8918663254,0.765124203515772,0.607843956576987,0.997369322463441,0,0,0
"48","0DeJj31H","Short Term (Working) Memory",75,40,30,30,"Yes to treatment",90,675.074999999139,0.75,45,47,38,37,43,18,21,19,22,20,15,14,16,17,6,7,5,6,7,5,6,5,6,5,1,2,2,1,2,0,4.25,4.25,4.25,NA,4,5,4,5,6,"1",29,4,4,6,6,2,2,3,3,5,3,"25000","Computer","19","software",2,0,1,"48",-8.66666666666666,4.8,90239.8918663254,0.765124203515772,0.607843956576987,0.997369322463441,0,0,0
"49","0DeJj31H","Short Term (Working) Memory",75,5,85,10,"No to treatment",90,1043.28999999777,17,45,47,38,37,43,18,21,19,22,20,15,14,16,17,6,7,5,6,7,5,6,5,6,5,1,2,2,1,2,0,4.25,4.25,4.25,NA,4,5,4,5,6,"1",29,4,4,6,6,2,2,3,3,5,3,"25000","Computer","19","software",2,0,1,"49",-43.6666666666667,59.8,90239.8918663254,0.765124203515772,0.607843956576987,0.997369322463441,0,0,0
"50","0DeJj31H","Short Term (Working) Memory",75,35,40,25,"Yes to treatment",90,582.979999999166,1.14285714285714,45,47,38,37,43,18,21,19,22,20,15,14,16,17,6,7,5,6,7,5,6,5,6,5,1,2,2,1,2,0,4.25,4.25,4.25,NA,4,5,4,5,6,"1",29,4,4,6,6,2,2,3,3,5,3,"25000","Computer","19","software",2,0,1,"50",-13.6666666666667,14.8,90239.8918663254,0.765124203515772,0.607843956576987,0.997369322463441,0,0,0
"51","0DeJj31H","Short Term (Working) Memory",75,90,5,5,"Yes to treatment",77,638.1949999996,0.0555555555555556,45,47,38,37,43,18,21,19,22,20,15,14,16,17,6,7,5,6,7,5,6,5,6,5,1,2,2,1,2,0,4.25,4.25,4.25,NA,4,5,4,5,6,"1",29,4,4,6,6,2,2,3,3,5,3,"25000","Computer","19","software",2,0,1,"51",41.3333333333333,-20.2,90239.8918663254,0.765124203515772,0.607843956576987,0.997369322463441,0,0,0
"52","0DeJj31H","Short Term (Working) Memory",75,40,15,45,"Yes to treatment",77,597.495000001858,0.375,45,47,38,37,43,18,21,19,22,20,15,14,16,17,6,7,5,6,7,5,6,5,6,5,1,2,2,1,2,0,4.25,4.25,4.25,NA,4,5,4,5,6,"1",29,4,4,6,6,2,2,3,3,5,3,"25000","Computer","19","software",2,0,1,"52",-8.66666666666666,-10.2,90239.8918663254,0.765124203515772,0.607843956576987,0.997369322463441,0,0,0
"53","0DeJj31H","Short Term (Working) Memory",75,65,15,20,"Yes to treatment",90,431.585000002116,0.230769230769231,45,47,38,37,43,18,21,19,22,20,15,14,16,17,6,7,5,6,7,5,6,5,6,5,1,2,2,1,2,0,4.25,4.25,4.25,NA,4,5,4,5,6,"1",29,4,4,6,6,2,2,3,3,5,3,"25000","Computer","19","software",2,0,1,"53",16.3333333333333,-10.2,90239.8918663254,0.765124203515772,0.607843956576987,0.997369322463441,0,0,0
"54","0DeJj31H","Short Term (Working) Memory",75,75,20,5,"Yes to treatment",77,5661.64500000014,0.266666666666667,45,47,38,37,43,18,21,19,22,20,15,14,16,17,6,7,5,6,7,5,6,5,6,5,1,2,2,1,2,0,4.25,4.25,4.25,NA,4,5,4,5,6,"1",29,4,4,6,6,2,2,3,3,5,3,"25000","Computer","19","software",2,0,1,"54",26.3333333333333,-5.2,90239.8918663254,0.765124203515772,0.607843956576987,0.997369322463441,0,0,0
"55","0DeJj31H","Short Term (Working) Memory",75,20,45,35,"Yes to treatment",90,864.000000001397,2.25,45,47,38,37,43,18,21,19,22,20,15,14,16,17,6,7,5,6,7,5,6,5,6,5,1,2,2,1,2,0,4.25,4.25,4.25,NA,4,5,4,5,6,"1",29,4,4,6,6,2,2,3,3,5,3,"25000","Computer","19","software",2,0,1,"55",-28.6666666666667,19.8,90239.8918663254,0.765124203515772,0.607843956576987,0.997369322463441,0,0,0
"56","0DeJj31H","Short Term (Working) Memory",75,90,5,5,"Yes to treatment",77,549.830000003567,0.0555555555555556,45,47,38,37,43,18,21,19,22,20,15,14,16,17,6,7,5,6,7,5,6,5,6,5,1,2,2,1,2,0,4.25,4.25,4.25,NA,4,5,4,5,6,"1",29,4,4,6,6,2,2,3,3,5,3,"25000","Computer","19","software",2,0,1,"56",41.3333333333333,-20.2,90239.8918663254,0.765124203515772,0.607843956576987,0.997369322463441,0,0,0
"57","0DeJj31H","Short Term (Working) Memory",75,60,30,10,"Yes to treatment",90,557.710000000894,0.5,45,47,38,37,43,18,21,19,22,20,15,14,16,17,6,7,5,6,7,5,6,5,6,5,1,2,2,1,2,0,4.25,4.25,4.25,NA,4,5,4,5,6,"1",29,4,4,6,6,2,2,3,3,5,3,"25000","Computer","19","software",2,0,1,"57",11.3333333333333,4.8,90239.8918663254,0.765124203515772,0.607843956576987,0.997369322463441,0,0,0
"58","0DeJj31H","Short Term (Working) Memory",75,90,5,5,"Yes to treatment",77,713.529999997234,0.0555555555555556,45,47,38,37,43,18,21,19,22,20,15,14,16,17,6,7,5,6,7,5,6,5,6,5,1,2,2,1,2,0,4.25,4.25,4.25,NA,4,5,4,5,6,"1",29,4,4,6,6,2,2,3,3,5,3,"25000","Computer","19","software",2,0,1,"58",41.3333333333333,-20.2,90239.8918663254,0.765124203515772,0.607843956576987,0.997369322463441,0,0,0
"59","0DeJj31H","Short Term (Working) Memory",75,85,5,10,"Yes to treatment",90,493.975000001257,0.0588235294117647,45,47,38,37,43,18,21,19,22,20,15,14,16,17,6,7,5,6,7,5,6,5,6,5,1,2,2,1,2,0,4.25,4.25,4.25,NA,4,5,4,5,6,"1",29,4,4,6,6,2,2,3,3,5,3,"25000","Computer","19","software",2,0,1,"59",36.3333333333333,-20.2,90239.8918663254,0.765124203515772,0.607843956576987,0.997369322463441,0,0,0
"60","0DeJj31H","Short Term (Working) Memory",75,35,40,25,"Yes to treatment",90,514.454999996815,1.14285714285714,45,47,38,37,43,18,21,19,22,20,15,14,16,17,6,7,5,6,7,5,6,5,6,5,1,2,2,1,2,0,4.25,4.25,4.25,NA,4,5,4,5,6,"1",29,4,4,6,6,2,2,3,3,5,3,"25000","Computer","19","software",2,0,1,"60",-13.6666666666667,14.8,90239.8918663254,0.765124203515772,0.607843956576987,0.997369322463441,0,0,0
"61","0DeJj31H","Short Term (Working) Memory",75,55,15,30,"Yes to treatment",77,581.214999998338,0.272727272727273,45,47,38,37,43,18,21,19,22,20,15,14,16,17,6,7,5,6,7,5,6,5,6,5,1,2,2,1,2,0,4.25,4.25,4.25,NA,4,5,4,5,6,"1",29,4,4,6,6,2,2,3,3,5,3,"25000","Computer","19","software",2,0,1,"61",6.33333333333334,-10.2,90239.8918663254,0.765124203515772,0.607843956576987,0.997369322463441,0,0,0
"62","0DeJj31H","Short Term (Working) Memory",75,55,30,15,"Yes to treatment",77,895.120000001043,0.545454545454545,45,47,38,37,43,18,21,19,22,20,15,14,16,17,6,7,5,6,7,5,6,5,6,5,1,2,2,1,2,0,4.25,4.25,4.25,NA,4,5,4,5,6,"1",29,4,4,6,6,2,2,3,3,5,3,"25000","Computer","19","software",2,0,1,"62",6.33333333333334,4.8,90239.8918663254,0.765124203515772,0.607843956576987,0.997369322463441,0,0,0
"63","0DeJj31H","Short Term (Working) Memory",75,50,35,15,"Yes to treatment",90,526.695000000414,0.7,45,47,38,37,43,18,21,19,22,20,15,14,16,17,6,7,5,6,7,5,6,5,6,5,1,2,2,1,2,0,4.25,4.25,4.25,NA,4,5,4,5,6,"1",29,4,4,6,6,2,2,3,3,5,3,"25000","Computer","19","software",2,0,1,"63",1.33333333333334,9.8,90239.8918663254,0.765124203515772,0.607843956576987,0.997369322463441,0,0,0
"64","0DeJj31H","Short Term (Working) Memory",75,50,15,35,"Yes to treatment",90,431.484999997367,0.3,45,47,38,37,43,18,21,19,22,20,15,14,16,17,6,7,5,6,7,5,6,5,6,5,1,2,2,1,2,0,4.25,4.25,4.25,NA,4,5,4,5,6,"1",29,4,4,6,6,2,2,3,3,5,3,"25000","Computer","19","software",2,0,1,"64",1.33333333333334,-10.2,90239.8918663254,0.765124203515772,0.607843956576987,0.997369322463441,0,0,0
"65","0DeJj31H","Short Term (Working) Memory",75,75,15,10,"Yes to treatment",90,493.164999999804,0.2,45,47,38,37,43,18,21,19,22,20,15,14,16,17,6,7,5,6,7,5,6,5,6,5,1,2,2,1,2,0,4.25,4.25,4.25,NA,4,5,4,5,6,"1",29,4,4,6,6,2,2,3,3,5,3,"25000","Computer","19","software",2,0,1,"65",26.3333333333333,-10.2,90239.8918663254,0.765124203515772,0.607843956576987,0.997369322463441,0,0,0
"66","0DeJj31H","Short Term (Working) Memory",75,65,20,15,"Yes to treatment",90,658.694999998203,0.307692307692308,45,47,38,37,43,18,21,19,22,20,15,14,16,17,6,7,5,6,7,5,6,5,6,5,1,2,2,1,2,0,4.25,4.25,4.25,NA,4,5,4,5,6,"1",29,4,4,6,6,2,2,3,3,5,3,"25000","Computer","19","software",2,0,1,"66",16.3333333333333,-5.2,90239.8918663254,0.765124203515772,0.607843956576987,0.997369322463441,0,0,0
"67","0DeJj31H","Short Term (Working) Memory",75,70,10,20,"Yes to treatment",90,567.159999998752,0.142857142857143,45,47,38,37,43,18,21,19,22,20,15,14,16,17,6,7,5,6,7,5,6,5,6,5,1,2,2,1,2,0,4.25,4.25,4.25,NA,4,5,4,5,6,"1",29,4,4,6,6,2,2,3,3,5,3,"25000","Computer","19","software",2,0,1,"67",21.3333333333333,-15.2,90239.8918663254,0.765124203515772,0.607843956576987,0.997369322463441,0,0,0
"68","0DeJj31H","Short Term (Working) Memory",75,70,15,15,"Yes to treatment",90,632.979999998468,0.214285714285714,45,47,38,37,43,18,21,19,22,20,15,14,16,17,6,7,5,6,7,5,6,5,6,5,1,2,2,1,2,0,4.25,4.25,4.25,NA,4,5,4,5,6,"1",29,4,4,6,6,2,2,3,3,5,3,"25000","Computer","19","software",2,0,1,"68",21.3333333333333,-10.2,90239.8918663254,0.765124203515772,0.607843956576987,0.997369322463441,0,0,0
"69","0DeJj31H","Short Term (Working) Memory",75,5,65,30,"Yes to treatment",90,463.779999998282,13,45,47,38,37,43,18,21,19,22,20,15,14,16,17,6,7,5,6,7,5,6,5,6,5,1,2,2,1,2,0,4.25,4.25,4.25,NA,4,5,4,5,6,"1",29,4,4,6,6,2,2,3,3,5,3,"25000","Computer","19","software",2,0,1,"69",-43.6666666666667,39.8,90239.8918663254,0.765124203515772,0.607843956576987,0.997369322463441,0,0,0
"70","0DeJj31H","Short Term (Working) Memory",75,85,10,5,"Yes to treatment",90,564.374999998137,0.117647058823529,45,47,38,37,43,18,21,19,22,20,15,14,16,17,6,7,5,6,7,5,6,5,6,5,1,2,2,1,2,0,4.25,4.25,4.25,NA,4,5,4,5,6,"1",29,4,4,6,6,2,2,3,3,5,3,"25000","Computer","19","software",2,0,1,"70",36.3333333333333,-15.2,90239.8918663254,0.765124203515772,0.607843956576987,0.997369322463441,0,0,0
"71","0DeJj31H","Short Term (Working) Memory",75,35,20,45,"Yes to treatment",77,660.659999997704,0.571428571428571,45,47,38,37,43,18,21,19,22,20,15,14,16,17,6,7,5,6,7,5,6,5,6,5,1,2,2,1,2,0,4.25,4.25,4.25,NA,4,5,4,5,6,"1",29,4,4,6,6,2,2,3,3,5,3,"25000","Computer","19","software",2,0,1,"71",-13.6666666666667,-5.2,90239.8918663254,0.765124203515772,0.607843956576987,0.997369322463441,0,0,0
"72","0DeJj31H","Short Term (Working) Memory",75,60,15,25,"Yes to treatment",90,568.349999997707,0.25,45,47,38,37,43,18,21,19,22,20,15,14,16,17,6,7,5,6,7,5,6,5,6,5,1,2,2,1,2,0,4.25,4.25,4.25,NA,4,5,4,5,6,"1",29,4,4,6,6,2,2,3,3,5,3,"25000","Computer","19","software",2,0,1,"72",11.3333333333333,-10.2,90239.8918663254,0.765124203515772,0.607843956576987,0.997369322463441,0,0,0
"73","0DeJj31H","Short Term (Working) Memory",75,80,10,10,"Yes to treatment",77,560.929999999702,0.125,45,47,38,37,43,18,21,19,22,20,15,14,16,17,6,7,5,6,7,5,6,5,6,5,1,2,2,1,2,0,4.25,4.25,4.25,NA,4,5,4,5,6,"1",29,4,4,6,6,2,2,3,3,5,3,"25000","Computer","19","software",2,0,1,"73",31.3333333333333,-15.2,90239.8918663254,0.765124203515772,0.607843956576987,0.997369322463441,0,0,0
"74","0DeJj31H","Short Term (Working) Memory",75,50,5,45,"Yes to treatment",90,23156.9850000014,0.1,45,47,38,37,43,18,21,19,22,20,15,14,16,17,6,7,5,6,7,5,6,5,6,5,1,2,2,1,2,0,4.25,4.25,4.25,NA,4,5,4,5,6,"1",29,4,4,6,6,2,2,3,3,5,3,"25000","Computer","19","software",2,0,1,"74",1.33333333333334,-20.2,90239.8918663254,0.765124203515772,0.607843956576987,0.997369322463441,0,0,0
"75","0DeJj31H","Short Term (Working) Memory",75,20,10,70,"Yes to treatment",90,27908.370000001,0.5,45,47,38,37,43,18,21,19,22,20,15,14,16,17,6,7,5,6,7,5,6,5,6,5,1,2,2,1,2,0,4.25,4.25,4.25,NA,4,5,4,5,6,"1",29,4,4,6,6,2,2,3,3,5,3,"25000","Computer","19","software",2,0,1,"75",-28.6666666666667,-15.2,90239.8918663254,0.765124203515772,0.607843956576987,0.997369322463441,0,0,0
"76","1mvqe1Y3","Language (spoken)",75,20,55,25,"Yes to treatment",90,1062.60000000114,2.75,38,42,36,36,37,24,24,14,18,16,23,5,15,0,7,8,8,4,8,3,8,4,4,4,0,0,0,0,0,0,6,6,6,22,3,2,5,5,4,"1",47,2,4,1,7,1,1,2,2,1,5,"175000","Business Administration","18","Full time - business owner - construction services",2,0,0,"1",-17.9333333333333,24.9333333333333,3.08863965221052e-05,0.737258641533961,1.51818839693465,1.00310874061674,0,0,0
"77","1mvqe1Y3","Language (spoken)",75,65,10,25,"No to treatment",90,1049.91999999947,0.153846153846154,38,42,36,36,37,24,24,14,18,16,23,5,15,0,7,8,8,4,8,3,8,4,4,4,0,0,0,0,0,0,6,6,6,22,3,2,5,5,4,"1",47,2,4,1,7,1,1,2,2,1,5,"175000","Business Administration","18","Full time - business owner - construction services",2,0,0,"2",27.0666666666667,-20.0666666666667,3.08863965221052e-05,0.737258641533961,1.51818839693465,1.00310874061674,0,0,0
"78","1mvqe1Y3","Language (spoken)",75,55,25,20,"No to treatment",77,630.740000000515,0.454545454545455,38,42,36,36,37,24,24,14,18,16,23,5,15,0,7,8,8,4,8,3,8,4,4,4,0,0,0,0,0,0,6,6,6,22,3,2,5,5,4,"1",47,2,4,1,7,1,1,2,2,1,5,"175000","Business Administration","18","Full time - business owner - construction services",2,0,0,"3",17.0666666666667,-5.06666666666667,3.08863965221052e-05,0.737258641533961,1.51818839693465,1.00310874061674,0,0,0
"79","1mvqe1Y3","Language (spoken)",75,10,25,65,"No to treatment",77,2948.07500000024,2.5,38,42,36,36,37,24,24,14,18,16,23,5,15,0,7,8,8,4,8,3,8,4,4,4,0,0,0,0,0,0,6,6,6,22,3,2,5,5,4,"1",47,2,4,1,7,1,1,2,2,1,5,"175000","Business Administration","18","Full time - business owner - construction services",2,0,0,"4",-27.9333333333333,-5.06666666666667,3.08863965221052e-05,0.737258641533961,1.51818839693465,1.00310874061674,0,0,0
"80","1mvqe1Y3","Language (spoken)",75,5,25,70,"No to treatment",77,648.540000000125,5,38,42,36,36,37,24,24,14,18,16,23,5,15,0,7,8,8,4,8,3,8,4,4,4,0,0,0,0,0,0,6,6,6,22,3,2,5,5,4,"1",47,2,4,1,7,1,1,2,2,1,5,"175000","Business Administration","18","Full time - business owner - construction services",2,0,0,"5",-32.9333333333333,-5.06666666666667,3.08863965221052e-05,0.737258641533961,1.51818839693465,1.00310874061674,0,0,0
"81","1mvqe1Y3","Language (spoken)",75,50,10,40,"No to treatment",90,790.670000000318,0.2,38,42,36,36,37,24,24,14,18,16,23,5,15,0,7,8,8,4,8,3,8,4,4,4,0,0,0,0,0,0,6,6,6,22,3,2,5,5,4,"1",47,2,4,1,7,1,1,2,2,1,5,"175000","Business Administration","18","Full time - business owner - construction services",2,0,0,"6",12.0666666666667,-20.0666666666667,3.08863965221052e-05,0.737258641533961,1.51818839693465,1.00310874061674,0,0,0
"82","1mvqe1Y3","Language (spoken)",75,60,15,25,"No to treatment",90,562.979999998788,0.25,38,42,36,36,37,24,24,14,18,16,23,5,15,0,7,8,8,4,8,3,8,4,4,4,0,0,0,0,0,0,6,6,6,22,3,2,5,5,4,"1",47,2,4,1,7,1,1,2,2,1,5,"175000","Business Administration","18","Full time - business owner - construction services",2,0,0,"7",22.0666666666667,-15.0666666666667,3.08863965221052e-05,0.737258641533961,1.51818839693465,1.00310874061674,0,0,0
"83","1mvqe1Y3","Language (spoken)",75,25,50,25,"Yes to treatment",90,982.715000000084,2,38,42,36,36,37,24,24,14,18,16,23,5,15,0,7,8,8,4,8,3,8,4,4,4,0,0,0,0,0,0,6,6,6,22,3,2,5,5,4,"1",47,2,4,1,7,1,1,2,2,1,5,"175000","Business Administration","18","Full time - business owner - construction services",2,0,0,"8",-12.9333333333333,19.9333333333333,3.08863965221052e-05,0.737258641533961,1.51818839693465,1.00310874061674,0,0,0
"84","1mvqe1Y3","Language (spoken)",75,70,20,10,"No to treatment",90,614.804999999265,0.285714285714286,38,42,36,36,37,24,24,14,18,16,23,5,15,0,7,8,8,4,8,3,8,4,4,4,0,0,0,0,0,0,6,6,6,22,3,2,5,5,4,"1",47,2,4,1,7,1,1,2,2,1,5,"175000","Business Administration","18","Full time - business owner - construction services",2,0,0,"9",32.0666666666667,-10.0666666666667,3.08863965221052e-05,0.737258641533961,1.51818839693465,1.00310874061674,0,0,0
"85","1mvqe1Y3","Language (spoken)",75,55,30,15,"No to treatment",90,536.740000001359,0.545454545454545,38,42,36,36,37,24,24,14,18,16,23,5,15,0,7,8,8,4,8,3,8,4,4,4,0,0,0,0,0,0,6,6,6,22,3,2,5,5,4,"1",47,2,4,1,7,1,1,2,2,1,5,"175000","Business Administration","18","Full time - business owner - construction services",2,0,0,"10",17.0666666666667,-0.0666666666666664,3.08863965221052e-05,0.737258641533961,1.51818839693465,1.00310874061674,0,0,0
"86","1mvqe1Y3","Language (spoken)",75,60,15,25,"No to treatment",77,861.60000000018,0.25,38,42,36,36,37,24,24,14,18,16,23,5,15,0,7,8,8,4,8,3,8,4,4,4,0,0,0,0,0,0,6,6,6,22,3,2,5,5,4,"1",47,2,4,1,7,1,1,2,2,1,5,"175000","Business Administration","18","Full time - business owner - construction services",2,0,0,"11",22.0666666666667,-15.0666666666667,3.08863965221052e-05,0.737258641533961,1.51818839693465,1.00310874061674,0,0,0
"87","1mvqe1Y3","Language (spoken)",75,10,50,40,"Yes to treatment",77,748.224999999366,5,38,42,36,36,37,24,24,14,18,16,23,5,15,0,7,8,8,4,8,3,8,4,4,4,0,0,0,0,0,0,6,6,6,22,3,2,5,5,4,"1",47,2,4,1,7,1,1,2,2,1,5,"175000","Business Administration","18","Full time - business owner - construction services",2,0,0,"12",-27.9333333333333,19.9333333333333,3.08863965221052e-05,0.737258641533961,1.51818839693465,1.00310874061674,0,0,0
"88","1mvqe1Y3","Language (spoken)",75,70,20,10,"No to treatment",90,1696.35500000004,0.285714285714286,38,42,36,36,37,24,24,14,18,16,23,5,15,0,7,8,8,4,8,3,8,4,4,4,0,0,0,0,0,0,6,6,6,22,3,2,5,5,4,"1",47,2,4,1,7,1,1,2,2,1,5,"175000","Business Administration","18","Full time - business owner - construction services",2,0,0,"13",32.0666666666667,-10.0666666666667,3.08863965221052e-05,0.737258641533961,1.51818839693465,1.00310874061674,0,0,0
"89","1mvqe1Y3","Language (spoken)",75,45,30,25,"No to treatment",77,748.074999999517,0.666666666666667,38,42,36,36,37,24,24,14,18,16,23,5,15,0,7,8,8,4,8,3,8,4,4,4,0,0,0,0,0,0,6,6,6,22,3,2,5,5,4,"1",47,2,4,1,7,1,1,2,2,1,5,"175000","Business Administration","18","Full time - business owner - construction services",2,0,0,"14",7.06666666666667,-0.0666666666666664,3.08863965221052e-05,0.737258641533961,1.51818839693465,1.00310874061674,0,0,0
"90","1mvqe1Y3","Language (spoken)",75,60,35,5,"No to treatment",90,891.944999999396,0.583333333333333,38,42,36,36,37,24,24,14,18,16,23,5,15,0,7,8,8,4,8,3,8,4,4,4,0,0,0,0,0,0,6,6,6,22,3,2,5,5,4,"1",47,2,4,1,7,1,1,2,2,1,5,"175000","Business Administration","18","Full time - business owner - construction services",2,0,0,"15",22.0666666666667,4.93333333333333,3.08863965221052e-05,0.737258641533961,1.51818839693465,1.00310874061674,0,0,0
"91","1mvqe1Y3","Language (spoken)",75,35,20,45,"No to treatment",77,631.17999999848,0.571428571428571,38,42,36,36,37,24,24,14,18,16,23,5,15,0,7,8,8,4,8,3,8,4,4,4,0,0,0,0,0,0,6,6,6,22,3,2,5,5,4,"1",47,2,4,1,7,1,1,2,2,1,5,"175000","Business Administration","18","Full time - business owner - construction services",2,0,0,"16",-2.93333333333333,-10.0666666666667,3.08863965221052e-05,0.737258641533961,1.51818839693465,1.00310874061674,0,0,0
"92","1mvqe1Y3","Language (spoken)",75,45,5,50,"No to treatment",77,4201.45500000035,0.111111111111111,38,42,36,36,37,24,24,14,18,16,23,5,15,0,7,8,8,4,8,3,8,4,4,4,0,0,0,0,0,0,6,6,6,22,3,2,5,5,4,"1",47,2,4,1,7,1,1,2,2,1,5,"175000","Business Administration","18","Full time - business owner - construction services",2,0,0,"17",7.06666666666667,-25.0666666666667,3.08863965221052e-05,0.737258641533961,1.51818839693465,1.00310874061674,0,0,0
"93","1mvqe1Y3","Language (spoken)",75,15,50,35,"Yes to treatment",77,1016.28499999971,3.33333333333333,38,42,36,36,37,24,24,14,18,16,23,5,15,0,7,8,8,4,8,3,8,4,4,4,0,0,0,0,0,0,6,6,6,22,3,2,5,5,4,"1",47,2,4,1,7,1,1,2,2,1,5,"175000","Business Administration","18","Full time - business owner - construction services",2,0,0,"18",-22.9333333333333,19.9333333333333,3.08863965221052e-05,0.737258641533961,1.51818839693465,1.00310874061674,0,0,0
"94","1mvqe1Y3","Language (spoken)",75,15,35,50,"No to treatment",90,535.630000000296,2.33333333333333,38,42,36,36,37,24,24,14,18,16,23,5,15,0,7,8,8,4,8,3,8,4,4,4,0,0,0,0,0,0,6,6,6,22,3,2,5,5,4,"1",47,2,4,1,7,1,1,2,2,1,5,"175000","Business Administration","18","Full time - business owner - construction services",2,0,0,"19",-22.9333333333333,4.93333333333333,3.08863965221052e-05,0.737258641533961,1.51818839693465,1.00310874061674,0,0,0
"95","1mvqe1Y3","Language (spoken)",75,45,15,40,"No to treatment",90,577.774999999732,0.333333333333333,38,42,36,36,37,24,24,14,18,16,23,5,15,0,7,8,8,4,8,3,8,4,4,4,0,0,0,0,0,0,6,6,6,22,3,2,5,5,4,"1",47,2,4,1,7,1,1,2,2,1,5,"175000","Business Administration","18","Full time - business owner - construction services",2,0,0,"20",7.06666666666667,-15.0666666666667,3.08863965221052e-05,0.737258641533961,1.51818839693465,1.00310874061674,0,0,0
"96","1mvqe1Y3","Language (spoken)",75,5,5,90,"No to treatment",90,778.275000000576,1,38,42,36,36,37,24,24,14,18,16,23,5,15,0,7,8,8,4,8,3,8,4,4,4,0,0,0,0,0,0,6,6,6,22,3,2,5,5,4,"1",47,2,4,1,7,1,1,2,2,1,5,"175000","Business Administration","18","Full time - business owner - construction services",2,0,0,"21",-32.9333333333333,-25.0666666666667,3.08863965221052e-05,0.737258641533961,1.51818839693465,1.00310874061674,0,0,0
"97","1mvqe1Y3","Language (spoken)",75,65,5,30,"No to treatment",90,834.820000000036,0.0769230769230769,38,42,36,36,37,24,24,14,18,16,23,5,15,0,7,8,8,4,8,3,8,4,4,4,0,0,0,0,0,0,6,6,6,22,3,2,5,5,4,"1",47,2,4,1,7,1,1,2,2,1,5,"175000","Business Administration","18","Full time - business owner - construction services",2,0,0,"22",27.0666666666667,-25.0666666666667,3.08863965221052e-05,0.737258641533961,1.51818839693465,1.00310874061674,0,0,0
"98","1mvqe1Y3","Language (spoken)",75,65,5,30,"No to treatment",90,730.765000000247,0.0769230769230769,38,42,36,36,37,24,24,14,18,16,23,5,15,0,7,8,8,4,8,3,8,4,4,4,0,0,0,0,0,0,6,6,6,22,3,2,5,5,4,"1",47,2,4,1,7,1,1,2,2,1,5,"175000","Business Administration","18","Full time - business owner - construction services",2,0,0,"23",27.0666666666667,-25.0666666666667,3.08863965221052e-05,0.737258641533961,1.51818839693465,1.00310874061674,0,0,0
"99","1mvqe1Y3","Language (spoken)",75,50,30,20,"No to treatment",77,1704.56000000013,0.6,38,42,36,36,37,24,24,14,18,16,23,5,15,0,7,8,8,4,8,3,8,4,4,4,0,0,0,0,0,0,6,6,6,22,3,2,5,5,4,"1",47,2,4,1,7,1,1,2,2,1,5,"175000","Business Administration","18","Full time - business owner - construction services",2,0,0,"24",12.0666666666667,-0.0666666666666664,3.08863965221052e-05,0.737258641533961,1.51818839693465,1.00310874061674,0,0,0
"100","1mvqe1Y3","Language (spoken)",75,60,30,10,"No to treatment",90,889.57499999924,0.5,38,42,36,36,37,24,24,14,18,16,23,5,15,0,7,8,8,4,8,3,8,4,4,4,0,0,0,0,0,0,6,6,6,22,3,2,5,5,4,"1",47,2,4,1,7,1,1,2,2,1,5,"175000","Business Administration","18","Full time - business owner - construction services",2,0,0,"25",22.0666666666667,-0.0666666666666664,3.08863965221052e-05,0.737258641533961,1.51818839693465,1.00310874061674,0,0,0
"101","1mvqe1Y3","Language (spoken)",75,70,5,25,"No to treatment",90,591.979999999225,0.0714285714285714,38,42,36,36,37,24,24,14,18,16,23,5,15,0,7,8,8,4,8,3,8,4,4,4,0,0,0,0,0,0,6,6,6,22,3,2,5,5,4,"1",47,2,4,1,7,1,1,2,2,1,5,"175000","Business Administration","18","Full time - business owner - construction services",2,0,0,"26",32.0666666666667,-25.0666666666667,3.08863965221052e-05,0.737258641533961,1.51818839693465,1.00310874061674,0,0,0
"102","1mvqe1Y3","Language (spoken)",75,5,20,75,"No to treatment",90,664.955000000191,4,38,42,36,36,37,24,24,14,18,16,23,5,15,0,7,8,8,4,8,3,8,4,4,4,0,0,0,0,0,0,6,6,6,22,3,2,5,5,4,"1",47,2,4,1,7,1,1,2,2,1,5,"175000","Business Administration","18","Full time - business owner - construction services",2,0,0,"27",-32.9333333333333,-10.0666666666667,3.08863965221052e-05,0.737258641533961,1.51818839693465,1.00310874061674,0,0,0
"103","1mvqe1Y3","Language (spoken)",75,25,25,50,"No to treatment",90,662.110000001121,1,38,42,36,36,37,24,24,14,18,16,23,5,15,0,7,8,8,4,8,3,8,4,4,4,0,0,0,0,0,0,6,6,6,22,3,2,5,5,4,"1",47,2,4,1,7,1,1,2,2,1,5,"175000","Business Administration","18","Full time - business owner - construction services",2,0,0,"28",-12.9333333333333,-5.06666666666667,3.08863965221052e-05,0.737258641533961,1.51818839693465,1.00310874061674,0,0,0
"104","1mvqe1Y3","Language (spoken)",75,10,30,60,"No to treatment",90,532.044999999925,3,38,42,36,36,37,24,24,14,18,16,23,5,15,0,7,8,8,4,8,3,8,4,4,4,0,0,0,0,0,0,6,6,6,22,3,2,5,5,4,"1",47,2,4,1,7,1,1,2,2,1,5,"175000","Business Administration","18","Full time - business owner - construction services",2,0,0,"29",-27.9333333333333,-0.0666666666666664,3.08863965221052e-05,0.737258641533961,1.51818839693465,1.00310874061674,0,0,0
"105","1mvqe1Y3","Language (spoken)",75,55,20,25,"No to treatment",90,876.740000001533,0.363636363636364,38,42,36,36,37,24,24,14,18,16,23,5,15,0,7,8,8,4,8,3,8,4,4,4,0,0,0,0,0,0,6,6,6,22,3,2,5,5,4,"1",47,2,4,1,7,1,1,2,2,1,5,"175000","Business Administration","18","Full time - business owner - construction services",2,0,0,"30",17.0666666666667,-10.0666666666667,3.08863965221052e-05,0.737258641533961,1.51818839693465,1.00310874061674,0,0,0
"106","1mvqe1Y3","Language (spoken)",75,50,10,40,"No to treatment",77,690.205000000773,0.2,38,42,36,36,37,24,24,14,18,16,23,5,15,0,7,8,8,4,8,3,8,4,4,4,0,0,0,0,0,0,6,6,6,22,3,2,5,5,4,"1",47,2,4,1,7,1,1,2,2,1,5,"175000","Business Administration","18","Full time - business owner - construction services",2,0,0,"31",12.0666666666667,-20.0666666666667,3.08863965221052e-05,0.737258641533961,1.51818839693465,1.00310874061674,0,0,0
"107","1mvqe1Y3","Language (spoken)",75,30,10,60,"No to treatment",90,669.625000000451,0.333333333333333,38,42,36,36,37,24,24,14,18,16,23,5,15,0,7,8,8,4,8,3,8,4,4,4,0,0,0,0,0,0,6,6,6,22,3,2,5,5,4,"1",47,2,4,1,7,1,1,2,2,1,5,"175000","Business Administration","18","Full time - business owner - construction services",2,0,0,"32",-7.93333333333333,-20.0666666666667,3.08863965221052e-05,0.737258641533961,1.51818839693465,1.00310874061674,0,0,0
"108","1mvqe1Y3","Language (spoken)",75,65,25,10,"No to treatment",77,969.215000000986,0.384615384615385,38,42,36,36,37,24,24,14,18,16,23,5,15,0,7,8,8,4,8,3,8,4,4,4,0,0,0,0,0,0,6,6,6,22,3,2,5,5,4,"1",47,2,4,1,7,1,1,2,2,1,5,"175000","Business Administration","18","Full time - business owner - construction services",2,0,0,"33",27.0666666666667,-5.06666666666667,3.08863965221052e-05,0.737258641533961,1.51818839693465,1.00310874061674,0,0,0
"109","1mvqe1Y3","Language (spoken)",75,5,10,85,"No to treatment",77,668.584999999439,2,38,42,36,36,37,24,24,14,18,16,23,5,15,0,7,8,8,4,8,3,8,4,4,4,0,0,0,0,0,0,6,6,6,22,3,2,5,5,4,"1",47,2,4,1,7,1,1,2,2,1,5,"175000","Business Administration","18","Full time - business owner - construction services",2,0,0,"34",-32.9333333333333,-20.0666666666667,3.08863965221052e-05,0.737258641533961,1.51818839693465,1.00310874061674,0,0,0
"110","1mvqe1Y3","Language (spoken)",75,25,50,25,"Yes to treatment",90,1174.3349999997,2,38,42,36,36,37,24,24,14,18,16,23,5,15,0,7,8,8,4,8,3,8,4,4,4,0,0,0,0,0,0,6,6,6,22,3,2,5,5,4,"1",47,2,4,1,7,1,1,2,2,1,5,"175000","Business Administration","18","Full time - business owner - construction services",2,0,0,"35",-12.9333333333333,19.9333333333333,3.08863965221052e-05,0.737258641533961,1.51818839693465,1.00310874061674,0,0,0
"111","1mvqe1Y3","Language (spoken)",75,5,55,40,"Yes to treatment",90,746.460000000283,11,38,42,36,36,37,24,24,14,18,16,23,5,15,0,7,8,8,4,8,3,8,4,4,4,0,0,0,0,0,0,6,6,6,22,3,2,5,5,4,"1",47,2,4,1,7,1,1,2,2,1,5,"175000","Business Administration","18","Full time - business owner - construction services",2,0,0,"36",-32.9333333333333,24.9333333333333,3.08863965221052e-05,0.737258641533961,1.51818839693465,1.00310874061674,0,0,0
"112","1mvqe1Y3","Language (spoken)",75,5,5,90,"No to treatment",77,604.080000000977,1,38,42,36,36,37,24,24,14,18,16,23,5,15,0,7,8,8,4,8,3,8,4,4,4,0,0,0,0,0,0,6,6,6,22,3,2,5,5,4,"1",47,2,4,1,7,1,1,2,2,1,5,"175000","Business Administration","18","Full time - business owner - construction services",2,0,0,"37",-32.9333333333333,-25.0666666666667,3.08863965221052e-05,0.737258641533961,1.51818839693465,1.00310874061674,0,0,0
"113","1mvqe1Y3","Language (spoken)",75,15,65,20,"Yes to treatment",77,658.170000000609,4.33333333333333,38,42,36,36,37,24,24,14,18,16,23,5,15,0,7,8,8,4,8,3,8,4,4,4,0,0,0,0,0,0,6,6,6,22,3,2,5,5,4,"1",47,2,4,1,7,1,1,2,2,1,5,"175000","Business Administration","18","Full time - business owner - construction services",2,0,0,"38",-22.9333333333333,34.9333333333333,3.08863965221052e-05,0.737258641533961,1.51818839693465,1.00310874061674,0,0,0
"114","1mvqe1Y3","Language (spoken)",75,5,90,5,"Yes to treatment",90,910.514999999577,18,38,42,36,36,37,24,24,14,18,16,23,5,15,0,7,8,8,4,8,3,8,4,4,4,0,0,0,0,0,0,6,6,6,22,3,2,5,5,4,"1",47,2,4,1,7,1,1,2,2,1,5,"175000","Business Administration","18","Full time - business owner - construction services",2,0,0,"39",-32.9333333333333,59.9333333333333,3.08863965221052e-05,0.737258641533961,1.51818839693465,1.00310874061674,0,0,0
"115","1mvqe1Y3","Language (spoken)",75,10,30,60,"Yes to treatment",77,1683.77499999951,3,38,42,36,36,37,24,24,14,18,16,23,5,15,0,7,8,8,4,8,3,8,4,4,4,0,0,0,0,0,0,6,6,6,22,3,2,5,5,4,"1",47,2,4,1,7,1,1,2,2,1,5,"175000","Business Administration","18","Full time - business owner - construction services",2,0,0,"40",-27.9333333333333,-0.0666666666666664,3.08863965221052e-05,0.737258641533961,1.51818839693465,1.00310874061674,0,0,0
"116","1mvqe1Y3","Language (spoken)",75,60,30,10,"No to treatment",90,598.434999999881,0.5,38,42,36,36,37,24,24,14,18,16,23,5,15,0,7,8,8,4,8,3,8,4,4,4,0,0,0,0,0,0,6,6,6,22,3,2,5,5,4,"1",47,2,4,1,7,1,1,2,2,1,5,"175000","Business Administration","18","Full time - business owner - construction services",2,0,0,"41",22.0666666666667,-0.0666666666666664,3.08863965221052e-05,0.737258641533961,1.51818839693465,1.00310874061674,0,0,0
"117","1mvqe1Y3","Language (spoken)",75,35,30,35,"No to treatment",90,550.264999999839,0.857142857142857,38,42,36,36,37,24,24,14,18,16,23,5,15,0,7,8,8,4,8,3,8,4,4,4,0,0,0,0,0,0,6,6,6,22,3,2,5,5,4,"1",47,2,4,1,7,1,1,2,2,1,5,"175000","Business Administration","18","Full time - business owner - construction services",2,0,0,"42",-2.93333333333333,-0.0666666666666664,3.08863965221052e-05,0.737258641533961,1.51818839693465,1.00310874061674,0,0,0
"118","1mvqe1Y3","Language (spoken)",75,15,65,20,"Yes to treatment",77,790.585000000632,4.33333333333333,38,42,36,36,37,24,24,14,18,16,23,5,15,0,7,8,8,4,8,3,8,4,4,4,0,0,0,0,0,0,6,6,6,22,3,2,5,5,4,"1",47,2,4,1,7,1,1,2,2,1,5,"175000","Business Administration","18","Full time - business owner - construction services",2,0,0,"43",-22.9333333333333,34.9333333333333,3.08863965221052e-05,0.737258641533961,1.51818839693465,1.00310874061674,0,0,0
"119","1mvqe1Y3","Language (spoken)",75,20,25,55,"No to treatment",90,897.970000000001,1.25,38,42,36,36,37,24,24,14,18,16,23,5,15,0,7,8,8,4,8,3,8,4,4,4,0,0,0,0,0,0,6,6,6,22,3,2,5,5,4,"1",47,2,4,1,7,1,1,2,2,1,5,"175000","Business Administration","18","Full time - business owner - construction services",2,0,0,"44",-17.9333333333333,-5.06666666666667,3.08863965221052e-05,0.737258641533961,1.51818839693465,1.00310874061674,0,0,0
"120","1mvqe1Y3","Language (spoken)",75,50,30,20,"No to treatment",90,661.415000000503,0.6,38,42,36,36,37,24,24,14,18,16,23,5,15,0,7,8,8,4,8,3,8,4,4,4,0,0,0,0,0,0,6,6,6,22,3,2,5,5,4,"1",47,2,4,1,7,1,1,2,2,1,5,"175000","Business Administration","18","Full time - business owner - construction services",2,0,0,"45",12.0666666666667,-0.0666666666666664,3.08863965221052e-05,0.737258641533961,1.51818839693465,1.00310874061674,0,0,0
"121","1mvqe1Y3","Language (spoken)",75,60,35,5,"No to treatment",77,857.845000000452,0.583333333333333,38,42,36,36,37,24,24,14,18,16,23,5,15,0,7,8,8,4,8,3,8,4,4,4,0,0,0,0,0,0,6,6,6,22,3,2,5,5,4,"1",47,2,4,1,7,1,1,2,2,1,5,"175000","Business Administration","18","Full time - business owner - construction services",2,0,0,"46",22.0666666666667,4.93333333333333,3.08863965221052e-05,0.737258641533961,1.51818839693465,1.00310874061674,0,0,0
"122","1mvqe1Y3","Language (spoken)",75,25,70,5,"Yes to treatment",77,682.769999999437,2.8,38,42,36,36,37,24,24,14,18,16,23,5,15,0,7,8,8,4,8,3,8,4,4,4,0,0,0,0,0,0,6,6,6,22,3,2,5,5,4,"1",47,2,4,1,7,1,1,2,2,1,5,"175000","Business Administration","18","Full time - business owner - construction services",2,0,0,"47",-12.9333333333333,39.9333333333333,3.08863965221052e-05,0.737258641533961,1.51818839693465,1.00310874061674,0,0,0
"123","1mvqe1Y3","Language (spoken)",75,40,40,20,"No to treatment",77,881.929999999527,1,38,42,36,36,37,24,24,14,18,16,23,5,15,0,7,8,8,4,8,3,8,4,4,4,0,0,0,0,0,0,6,6,6,22,3,2,5,5,4,"1",47,2,4,1,7,1,1,2,2,1,5,"175000","Business Administration","18","Full time - business owner - construction services",2,0,0,"48",2.06666666666667,9.93333333333333,3.08863965221052e-05,0.737258641533961,1.51818839693465,1.00310874061674,0,0,0
"124","1mvqe1Y3","Language (spoken)",75,10,45,45,"Yes to treatment",77,1917.1699999988,4.5,38,42,36,36,37,24,24,14,18,16,23,5,15,0,7,8,8,4,8,3,8,4,4,4,0,0,0,0,0,0,6,6,6,22,3,2,5,5,4,"1",47,2,4,1,7,1,1,2,2,1,5,"175000","Business Administration","18","Full time - business owner - construction services",2,0,0,"49",-27.9333333333333,14.9333333333333,3.08863965221052e-05,0.737258641533961,1.51818839693465,1.00310874061674,0,0,0
"125","1mvqe1Y3","Language (spoken)",75,60,20,20,"No to treatment",77,662.524999999732,0.333333333333333,38,42,36,36,37,24,24,14,18,16,23,5,15,0,7,8,8,4,8,3,8,4,4,4,0,0,0,0,0,0,6,6,6,22,3,2,5,5,4,"1",47,2,4,1,7,1,1,2,2,1,5,"175000","Business Administration","18","Full time - business owner - construction services",2,0,0,"50",22.0666666666667,-10.0666666666667,3.08863965221052e-05,0.737258641533961,1.51818839693465,1.00310874061674,0,0,0
"126","1mvqe1Y3","Language (spoken)",75,55,25,20,"No to treatment",77,659.260000000359,0.454545454545455,38,42,36,36,37,24,24,14,18,16,23,5,15,0,7,8,8,4,8,3,8,4,4,4,0,0,0,0,0,0,6,6,6,22,3,2,5,5,4,"1",47,2,4,1,7,1,1,2,2,1,5,"175000","Business Administration","18","Full time - business owner - construction services",2,0,0,"51",17.0666666666667,-5.06666666666667,3.08863965221052e-05,0.737258641533961,1.51818839693465,1.00310874061674,0,0,0
"127","1mvqe1Y3","Language (spoken)",75,50,20,30,"No to treatment",90,619.04499999946,0.4,38,42,36,36,37,24,24,14,18,16,23,5,15,0,7,8,8,4,8,3,8,4,4,4,0,0,0,0,0,0,6,6,6,22,3,2,5,5,4,"1",47,2,4,1,7,1,1,2,2,1,5,"175000","Business Administration","18","Full time - business owner - construction services",2,0,0,"52",12.0666666666667,-10.0666666666667,3.08863965221052e-05,0.737258641533961,1.51818839693465,1.00310874061674,0,0,0
"128","1mvqe1Y3","Language (spoken)",75,30,50,20,"No to treatment",77,1361.82000000009,1.66666666666667,38,42,36,36,37,24,24,14,18,16,23,5,15,0,7,8,8,4,8,3,8,4,4,4,0,0,0,0,0,0,6,6,6,22,3,2,5,5,4,"1",47,2,4,1,7,1,1,2,2,1,5,"175000","Business Administration","18","Full time - business owner - construction services",2,0,0,"53",-7.93333333333333,19.9333333333333,3.08863965221052e-05,0.737258641533961,1.51818839693465,1.00310874061674,0,0,0
"129","1mvqe1Y3","Language (spoken)",75,65,20,15,"No to treatment",77,1406.01500000048,0.307692307692308,38,42,36,36,37,24,24,14,18,16,23,5,15,0,7,8,8,4,8,3,8,4,4,4,0,0,0,0,0,0,6,6,6,22,3,2,5,5,4,"1",47,2,4,1,7,1,1,2,2,1,5,"175000","Business Administration","18","Full time - business owner - construction services",2,0,0,"54",27.0666666666667,-10.0666666666667,3.08863965221052e-05,0.737258641533961,1.51818839693465,1.00310874061674,0,0,0
"130","1mvqe1Y3","Language (spoken)",75,30,25,45,"No to treatment",90,606.300000001298,0.833333333333333,38,42,36,36,37,24,24,14,18,16,23,5,15,0,7,8,8,4,8,3,8,4,4,4,0,0,0,0,0,0,6,6,6,22,3,2,5,5,4,"1",47,2,4,1,7,1,1,2,2,1,5,"175000","Business Administration","18","Full time - business owner - construction services",2,0,0,"55",-7.93333333333333,-5.06666666666667,3.08863965221052e-05,0.737258641533961,1.51818839693465,1.00310874061674,0,0,0
"131","1mvqe1Y3","Language (spoken)",75,45,15,40,"No to treatment",90,726.254999999597,0.333333333333333,38,42,36,36,37,24,24,14,18,16,23,5,15,0,7,8,8,4,8,3,8,4,4,4,0,0,0,0,0,0,6,6,6,22,3,2,5,5,4,"1",47,2,4,1,7,1,1,2,2,1,5,"175000","Business Administration","18","Full time - business owner - construction services",2,0,0,"56",7.06666666666667,-15.0666666666667,3.08863965221052e-05,0.737258641533961,1.51818839693465,1.00310874061674,0,0,0
"132","1mvqe1Y3","Language (spoken)",75,60,25,15,"No to treatment",90,815.109999999549,0.416666666666667,38,42,36,36,37,24,24,14,18,16,23,5,15,0,7,8,8,4,8,3,8,4,4,4,0,0,0,0,0,0,6,6,6,22,3,2,5,5,4,"1",47,2,4,1,7,1,1,2,2,1,5,"175000","Business Administration","18","Full time - business owner - construction services",2,0,0,"57",22.0666666666667,-5.06666666666667,3.08863965221052e-05,0.737258641533961,1.51818839693465,1.00310874061674,0,0,0
"133","1mvqe1Y3","Language (spoken)",75,20,50,30,"Yes to treatment",90,1056.15500000023,2.5,38,42,36,36,37,24,24,14,18,16,23,5,15,0,7,8,8,4,8,3,8,4,4,4,0,0,0,0,0,0,6,6,6,22,3,2,5,5,4,"1",47,2,4,1,7,1,1,2,2,1,5,"175000","Business Administration","18","Full time - business owner - construction services",2,0,0,"58",-17.9333333333333,19.9333333333333,3.08863965221052e-05,0.737258641533961,1.51818839693465,1.00310874061674,0,0,0
"134","1mvqe1Y3","Language (spoken)",75,20,70,10,"Yes to treatment",90,1073.31500000146,3.5,38,42,36,36,37,24,24,14,18,16,23,5,15,0,7,8,8,4,8,3,8,4,4,4,0,0,0,0,0,0,6,6,6,22,3,2,5,5,4,"1",47,2,4,1,7,1,1,2,2,1,5,"175000","Business Administration","18","Full time - business owner - construction services",2,0,0,"59",-17.9333333333333,39.9333333333333,3.08863965221052e-05,0.737258641533961,1.51818839693465,1.00310874061674,0,0,0
"135","1mvqe1Y3","Language (spoken)",75,50,20,30,"No to treatment",90,533.854999999661,0.4,38,42,36,36,37,24,24,14,18,16,23,5,15,0,7,8,8,4,8,3,8,4,4,4,0,0,0,0,0,0,6,6,6,22,3,2,5,5,4,"1",47,2,4,1,7,1,1,2,2,1,5,"175000","Business Administration","18","Full time - business owner - construction services",2,0,0,"60",12.0666666666667,-10.0666666666667,3.08863965221052e-05,0.737258641533961,1.51818839693465,1.00310874061674,0,0,0
"136","1mvqe1Y3","Language (spoken)",75,45,35,20,"No to treatment",77,1247.56999999954,0.777777777777778,38,42,36,36,37,24,24,14,18,16,23,5,15,0,7,8,8,4,8,3,8,4,4,4,0,0,0,0,0,0,6,6,6,22,3,2,5,5,4,"1",47,2,4,1,7,1,1,2,2,1,5,"175000","Business Administration","18","Full time - business owner - construction services",2,0,0,"61",7.06666666666667,4.93333333333333,3.08863965221052e-05,0.737258641533961,1.51818839693465,1.00310874061674,0,0,0
"137","1mvqe1Y3","Language (spoken)",75,10,55,35,"Yes to treatment",77,560.494999999719,5.5,38,42,36,36,37,24,24,14,18,16,23,5,15,0,7,8,8,4,8,3,8,4,4,4,0,0,0,0,0,0,6,6,6,22,3,2,5,5,4,"1",47,2,4,1,7,1,1,2,2,1,5,"175000","Business Administration","18","Full time - business owner - construction services",2,0,0,"62",-27.9333333333333,24.9333333333333,3.08863965221052e-05,0.737258641533961,1.51818839693465,1.00310874061674,0,0,0
"138","1mvqe1Y3","Language (spoken)",75,20,15,65,"No to treatment",77,917.910000000149,0.75,38,42,36,36,37,24,24,14,18,16,23,5,15,0,7,8,8,4,8,3,8,4,4,4,0,0,0,0,0,0,6,6,6,22,3,2,5,5,4,"1",47,2,4,1,7,1,1,2,2,1,5,"175000","Business Administration","18","Full time - business owner - construction services",2,0,0,"63",-17.9333333333333,-15.0666666666667,3.08863965221052e-05,0.737258641533961,1.51818839693465,1.00310874061674,0,0,0
"139","1mvqe1Y3","Language (spoken)",75,50,15,35,"No to treatment",77,589.224999999715,0.3,38,42,36,36,37,24,24,14,18,16,23,5,15,0,7,8,8,4,8,3,8,4,4,4,0,0,0,0,0,0,6,6,6,22,3,2,5,5,4,"1",47,2,4,1,7,1,1,2,2,1,5,"175000","Business Administration","18","Full time - business owner - construction services",2,0,0,"64",12.0666666666667,-15.0666666666667,3.08863965221052e-05,0.737258641533961,1.51818839693465,1.00310874061674,0,0,0
"140","1mvqe1Y3","Language (spoken)",75,70,15,15,"No to treatment",77,805.774999998888,0.214285714285714,38,42,36,36,37,24,24,14,18,16,23,5,15,0,7,8,8,4,8,3,8,4,4,4,0,0,0,0,0,0,6,6,6,22,3,2,5,5,4,"1",47,2,4,1,7,1,1,2,2,1,5,"175000","Business Administration","18","Full time - business owner - construction services",2,0,0,"65",32.0666666666667,-15.0666666666667,3.08863965221052e-05,0.737258641533961,1.51818839693465,1.00310874061674,0,0,0
"141","1mvqe1Y3","Language (spoken)",75,65,15,20,"No to treatment",77,638.939999998911,0.230769230769231,38,42,36,36,37,24,24,14,18,16,23,5,15,0,7,8,8,4,8,3,8,4,4,4,0,0,0,0,0,0,6,6,6,22,3,2,5,5,4,"1",47,2,4,1,7,1,1,2,2,1,5,"175000","Business Administration","18","Full time - business owner - construction services",2,0,0,"66",27.0666666666667,-15.0666666666667,3.08863965221052e-05,0.737258641533961,1.51818839693465,1.00310874061674,0,0,0
"142","1mvqe1Y3","Language (spoken)",75,60,5,35,"No to treatment",77,779.140000000567,0.0833333333333333,38,42,36,36,37,24,24,14,18,16,23,5,15,0,7,8,8,4,8,3,8,4,4,4,0,0,0,0,0,0,6,6,6,22,3,2,5,5,4,"1",47,2,4,1,7,1,1,2,2,1,5,"175000","Business Administration","18","Full time - business owner - construction services",2,0,0,"67",22.0666666666667,-25.0666666666667,3.08863965221052e-05,0.737258641533961,1.51818839693465,1.00310874061674,0,0,0
"143","1mvqe1Y3","Language (spoken)",75,20,50,30,"Yes to treatment",77,792.695000000094,2.5,38,42,36,36,37,24,24,14,18,16,23,5,15,0,7,8,8,4,8,3,8,4,4,4,0,0,0,0,0,0,6,6,6,22,3,2,5,5,4,"1",47,2,4,1,7,1,1,2,2,1,5,"175000","Business Administration","18","Full time - business owner - construction services",2,0,0,"68",-17.9333333333333,19.9333333333333,3.08863965221052e-05,0.737258641533961,1.51818839693465,1.00310874061674,0,0,0
"144","1mvqe1Y3","Language (spoken)",75,10,40,50,"No to treatment",90,681.794999998616,4,38,42,36,36,37,24,24,14,18,16,23,5,15,0,7,8,8,4,8,3,8,4,4,4,0,0,0,0,0,0,6,6,6,22,3,2,5,5,4,"1",47,2,4,1,7,1,1,2,2,1,5,"175000","Business Administration","18","Full time - business owner - construction services",2,0,0,"69",-27.9333333333333,9.93333333333333,3.08863965221052e-05,0.737258641533961,1.51818839693465,1.00310874061674,0,0,0
"145","1mvqe1Y3","Language (spoken)",75,70,25,5,"No to treatment",90,662.089999999822,0.357142857142857,38,42,36,36,37,24,24,14,18,16,23,5,15,0,7,8,8,4,8,3,8,4,4,4,0,0,0,0,0,0,6,6,6,22,3,2,5,5,4,"1",47,2,4,1,7,1,1,2,2,1,5,"175000","Business Administration","18","Full time - business owner - construction services",2,0,0,"70",32.0666666666667,-5.06666666666667,3.08863965221052e-05,0.737258641533961,1.51818839693465,1.00310874061674,0,0,0
"146","1mvqe1Y3","Language (spoken)",75,70,25,5,"No to treatment",77,708.000000000538,0.357142857142857,38,42,36,36,37,24,24,14,18,16,23,5,15,0,7,8,8,4,8,3,8,4,4,4,0,0,0,0,0,0,6,6,6,22,3,2,5,5,4,"1",47,2,4,1,7,1,1,2,2,1,5,"175000","Business Administration","18","Full time - business owner - construction services",2,0,0,"71",32.0666666666667,-5.06666666666667,3.08863965221052e-05,0.737258641533961,1.51818839693465,1.00310874061674,0,0,0
"147","1mvqe1Y3","Language (spoken)",75,5,40,55,"Yes to treatment",77,1455.899999999,8,38,42,36,36,37,24,24,14,18,16,23,5,15,0,7,8,8,4,8,3,8,4,4,4,0,0,0,0,0,0,6,6,6,22,3,2,5,5,4,"1",47,2,4,1,7,1,1,2,2,1,5,"175000","Business Administration","18","Full time - business owner - construction services",2,0,0,"72",-32.9333333333333,9.93333333333333,3.08863965221052e-05,0.737258641533961,1.51818839693465,1.00310874061674,0,0,0
"148","1mvqe1Y3","Language (spoken)",75,25,55,20,"Yes to treatment",77,1674.53999999998,2.2,38,42,36,36,37,24,24,14,18,16,23,5,15,0,7,8,8,4,8,3,8,4,4,4,0,0,0,0,0,0,6,6,6,22,3,2,5,5,4,"1",47,2,4,1,7,1,1,2,2,1,5,"175000","Business Administration","18","Full time - business owner - construction services",2,0,0,"73",-12.9333333333333,24.9333333333333,3.08863965221052e-05,0.737258641533961,1.51818839693465,1.00310874061674,0,0,0
"149","1mvqe1Y3","Language (spoken)",75,45,50,5,"No to treatment",77,1333.52500000002,1.11111111111111,38,42,36,36,37,24,24,14,18,16,23,5,15,0,7,8,8,4,8,3,8,4,4,4,0,0,0,0,0,0,6,6,6,22,3,2,5,5,4,"1",47,2,4,1,7,1,1,2,2,1,5,"175000","Business Administration","18","Full time - business owner - construction services",2,0,0,"74",7.06666666666667,19.9333333333333,3.08863965221052e-05,0.737258641533961,1.51818839693465,1.00310874061674,0,0,0
"150","1mvqe1Y3","Language (spoken)",75,40,40,20,"No to treatment",77,948.674999999639,1,38,42,36,36,37,24,24,14,18,16,23,5,15,0,7,8,8,4,8,3,8,4,4,4,0,0,0,0,0,0,6,6,6,22,3,2,5,5,4,"1",47,2,4,1,7,1,1,2,2,1,5,"175000","Business Administration","18","Full time - business owner - construction services",2,0,0,"75",2.06666666666667,9.93333333333333,3.08863965221052e-05,0.737258641533961,1.51818839693465,1.00310874061674,0,0,0
"151","2n0R4z0W","Motor Function",75,70,25,5,"Yes to treatment",90,2541.64500004845,0.357142857142857,40,38,43,38,32,19,23,17,23,19,6,20,24,24,0,4,2,6,4,8,8,8,8,8,1,0,0,0,1,1,5.5,5.25,5.75,30,1,1,1,7,1,"2",45,2,3,1,1,3,3,4,6,1,3,"120000","Applied Behavioral Science","16","homemaker full time parent",2,1,0,"1",31.2,-5.13333333333333,2.03692511159862,1.02693631346264,1.03610048045102,1.00095326109366,0,1,0
"152","2n0R4z0W","Motor Function",75,70,15,15,"Yes to treatment",90,983.179999981076,0.214285714285714,40,38,43,38,32,19,23,17,23,19,6,20,24,24,0,4,2,6,4,8,8,8,8,8,1,0,0,0,1,1,5.5,5.25,5.75,30,1,1,1,7,1,"2",45,2,3,1,1,3,3,4,6,1,3,"120000","Applied Behavioral Science","16","homemaker full time parent",2,1,0,"2",31.2,-15.1333333333333,2.03692511159862,1.02693631346264,1.03610048045102,1.00095326109366,0,1,0
"153","2n0R4z0W","Motor Function",75,65,15,20,"Yes to treatment",90,3286.38000000501,0.230769230769231,40,38,43,38,32,19,23,17,23,19,6,20,24,24,0,4,2,6,4,8,8,8,8,8,1,0,0,0,1,1,5.5,5.25,5.75,30,1,1,1,7,1,"2",45,2,3,1,1,3,3,4,6,1,3,"120000","Applied Behavioral Science","16","homemaker full time parent",2,1,0,"3",26.2,-15.1333333333333,2.03692511159862,1.02693631346264,1.03610048045102,1.00095326109366,0,1,0
"154","2n0R4z0W","Motor Function",75,65,15,20,"No to treatment",77,3790.65999999875,0.230769230769231,40,38,43,38,32,19,23,17,23,19,6,20,24,24,0,4,2,6,4,8,8,8,8,8,1,0,0,0,1,1,5.5,5.25,5.75,30,1,1,1,7,1,"2",45,2,3,1,1,3,3,4,6,1,3,"120000","Applied Behavioral Science","16","homemaker full time parent",2,1,0,"4",26.2,-15.1333333333333,2.03692511159862,1.02693631346264,1.03610048045102,1.00095326109366,0,1,0
"155","2n0R4z0W","Motor Function",75,65,15,20,"Yes to treatment",77,2271.16499998374,0.230769230769231,40,38,43,38,32,19,23,17,23,19,6,20,24,24,0,4,2,6,4,8,8,8,8,8,1,0,0,0,1,1,5.5,5.25,5.75,30,1,1,1,7,1,"2",45,2,3,1,1,3,3,4,6,1,3,"120000","Applied Behavioral Science","16","homemaker full time parent",2,1,0,"5",26.2,-15.1333333333333,2.03692511159862,1.02693631346264,1.03610048045102,1.00095326109366,0,1,0
"156","2n0R4z0W","Motor Function",75,25,5,70,"Yes to treatment",90,1783.23999996064,0.2,40,38,43,38,32,19,23,17,23,19,6,20,24,24,0,4,2,6,4,8,8,8,8,8,1,0,0,0,1,1,5.5,5.25,5.75,30,1,1,1,7,1,"2",45,2,3,1,1,3,3,4,6,1,3,"120000","Applied Behavioral Science","16","homemaker full time parent",2,1,0,"6",-13.8,-25.1333333333333,2.03692511159862,1.02693631346264,1.03610048045102,1.00095326109366,0,1,0
"157","2n0R4z0W","Motor Function",75,50,10,40,"No to treatment",77,3208.07499997318,0.2,40,38,43,38,32,19,23,17,23,19,6,20,24,24,0,4,2,6,4,8,8,8,8,8,1,0,0,0,1,1,5.5,5.25,5.75,30,1,1,1,7,1,"2",45,2,3,1,1,3,3,4,6,1,3,"120000","Applied Behavioral Science","16","homemaker full time parent",2,1,0,"7",11.2,-20.1333333333333,2.03692511159862,1.02693631346264,1.03610048045102,1.00095326109366,0,1,0
"158","2n0R4z0W","Motor Function",75,20,5,75,"No to treatment",77,3265.16499998979,0.25,40,38,43,38,32,19,23,17,23,19,6,20,24,24,0,4,2,6,4,8,8,8,8,8,1,0,0,0,1,1,5.5,5.25,5.75,30,1,1,1,7,1,"2",45,2,3,1,1,3,3,4,6,1,3,"120000","Applied Behavioral Science","16","homemaker full time parent",2,1,0,"8",-18.8,-25.1333333333333,2.03692511159862,1.02693631346264,1.03610048045102,1.00095326109366,0,1,0
"159","2n0R4z0W","Motor Function",75,5,10,85,"No to treatment",90,3173.83000004338,2,40,38,43,38,32,19,23,17,23,19,6,20,24,24,0,4,2,6,4,8,8,8,8,8,1,0,0,0,1,1,5.5,5.25,5.75,30,1,1,1,7,1,"2",45,2,3,1,1,3,3,4,6,1,3,"120000","Applied Behavioral Science","16","homemaker full time parent",2,1,0,"9",-33.8,-20.1333333333333,2.03692511159862,1.02693631346264,1.03610048045102,1.00095326109366,0,1,0
"160","2n0R4z0W","Motor Function",75,10,45,45,"No to treatment",90,8126.5049999929,4.5,40,38,43,38,32,19,23,17,23,19,6,20,24,24,0,4,2,6,4,8,8,8,8,8,1,0,0,0,1,1,5.5,5.25,5.75,30,1,1,1,7,1,"2",45,2,3,1,1,3,3,4,6,1,3,"120000","Applied Behavioral Science","16","homemaker full time parent",2,1,0,"10",-28.8,14.8666666666667,2.03692511159862,1.02693631346264,1.03610048045102,1.00095326109366,0,1,0
"161","2n0R4z0W","Motor Function",75,15,70,15,"Yes to treatment",77,3608.39499998838,4.66666666666667,40,38,43,38,32,19,23,17,23,19,6,20,24,24,0,4,2,6,4,8,8,8,8,8,1,0,0,0,1,1,5.5,5.25,5.75,30,1,1,1,7,1,"2",45,2,3,1,1,3,3,4,6,1,3,"120000","Applied Behavioral Science","16","homemaker full time parent",2,1,0,"11",-23.8,39.8666666666667,2.03692511159862,1.02693631346264,1.03610048045102,1.00095326109366,0,1,0
"162","2n0R4z0W","Motor Function",75,50,30,20,"Yes to treatment",90,2334.6400000155,0.6,40,38,43,38,32,19,23,17,23,19,6,20,24,24,0,4,2,6,4,8,8,8,8,8,1,0,0,0,1,1,5.5,5.25,5.75,30,1,1,1,7,1,"2",45,2,3,1,1,3,3,4,6,1,3,"120000","Applied Behavioral Science","16","homemaker full time parent",2,1,0,"12",11.2,-0.133333333333333,2.03692511159862,1.02693631346264,1.03610048045102,1.00095326109366,0,1,0
"163","2n0R4z0W","Motor Function",75,40,25,35,"Yes to treatment",90,7335.43500001542,0.625,40,38,43,38,32,19,23,17,23,19,6,20,24,24,0,4,2,6,4,8,8,8,8,8,1,0,0,0,1,1,5.5,5.25,5.75,30,1,1,1,7,1,"2",45,2,3,1,1,3,3,4,6,1,3,"120000","Applied Behavioral Science","16","homemaker full time parent",2,1,0,"13",1.2,-5.13333333333333,2.03692511159862,1.02693631346264,1.03610048045102,1.00095326109366,0,1,0
"164","2n0R4z0W","Motor Function",75,10,75,15,"Yes to treatment",77,1960.30500001507,7.5,40,38,43,38,32,19,23,17,23,19,6,20,24,24,0,4,2,6,4,8,8,8,8,8,1,0,0,0,1,1,5.5,5.25,5.75,30,1,1,1,7,1,"2",45,2,3,1,1,3,3,4,6,1,3,"120000","Applied Behavioral Science","16","homemaker full time parent",2,1,0,"14",-28.8,44.8666666666667,2.03692511159862,1.02693631346264,1.03610048045102,1.00095326109366,0,1,0
"165","2n0R4z0W","Motor Function",75,30,40,30,"No to treatment",77,8287.64999995474,1.33333333333333,40,38,43,38,32,19,23,17,23,19,6,20,24,24,0,4,2,6,4,8,8,8,8,8,1,0,0,0,1,1,5.5,5.25,5.75,30,1,1,1,7,1,"2",45,2,3,1,1,3,3,4,6,1,3,"120000","Applied Behavioral Science","16","homemaker full time parent",2,1,0,"15",-8.8,9.86666666666667,2.03692511159862,1.02693631346264,1.03610048045102,1.00095326109366,0,1,0
"166","2n0R4z0W","Motor Function",75,60,35,5,"Yes to treatment",90,2276.77500003483,0.583333333333333,40,38,43,38,32,19,23,17,23,19,6,20,24,24,0,4,2,6,4,8,8,8,8,8,1,0,0,0,1,1,5.5,5.25,5.75,30,1,1,1,7,1,"2",45,2,3,1,1,3,3,4,6,1,3,"120000","Applied Behavioral Science","16","homemaker full time parent",2,1,0,"16",21.2,4.86666666666667,2.03692511159862,1.02693631346264,1.03610048045102,1.00095326109366,0,1,0
"167","2n0R4z0W","Motor Function",75,50,45,5,"Yes to treatment",77,1894.51499999268,0.9,40,38,43,38,32,19,23,17,23,19,6,20,24,24,0,4,2,6,4,8,8,8,8,8,1,0,0,0,1,1,5.5,5.25,5.75,30,1,1,1,7,1,"2",45,2,3,1,1,3,3,4,6,1,3,"120000","Applied Behavioral Science","16","homemaker full time parent",2,1,0,"17",11.2,14.8666666666667,2.03692511159862,1.02693631346264,1.03610048045102,1.00095326109366,0,1,0
"168","2n0R4z0W","Motor Function",75,30,55,15,"No to treatment",77,5647.61999994516,1.83333333333333,40,38,43,38,32,19,23,17,23,19,6,20,24,24,0,4,2,6,4,8,8,8,8,8,1,0,0,0,1,1,5.5,5.25,5.75,30,1,1,1,7,1,"2",45,2,3,1,1,3,3,4,6,1,3,"120000","Applied Behavioral Science","16","homemaker full time parent",2,1,0,"18",-8.8,24.8666666666667,2.03692511159862,1.02693631346264,1.03610048045102,1.00095326109366,0,1,0
"169","2n0R4z0W","Motor Function",75,35,45,20,"No to treatment",77,4616.44499999238,1.28571428571429,40,38,43,38,32,19,23,17,23,19,6,20,24,24,0,4,2,6,4,8,8,8,8,8,1,0,0,0,1,1,5.5,5.25,5.75,30,1,1,1,7,1,"2",45,2,3,1,1,3,3,4,6,1,3,"120000","Applied Behavioral Science","16","homemaker full time parent",2,1,0,"19",-3.8,14.8666666666667,2.03692511159862,1.02693631346264,1.03610048045102,1.00095326109366,0,1,0
"170","2n0R4z0W","Motor Function",75,25,35,40,"No to treatment",77,1495.43000000995,1.4,40,38,43,38,32,19,23,17,23,19,6,20,24,24,0,4,2,6,4,8,8,8,8,8,1,0,0,0,1,1,5.5,5.25,5.75,30,1,1,1,7,1,"2",45,2,3,1,1,3,3,4,6,1,3,"120000","Applied Behavioral Science","16","homemaker full time parent",2,1,0,"20",-13.8,4.86666666666667,2.03692511159862,1.02693631346264,1.03610048045102,1.00095326109366,0,1,0
"171","2n0R4z0W","Motor Function",75,25,15,60,"No to treatment",77,1837.72499999031,0.6,40,38,43,38,32,19,23,17,23,19,6,20,24,24,0,4,2,6,4,8,8,8,8,8,1,0,0,0,1,1,5.5,5.25,5.75,30,1,1,1,7,1,"2",45,2,3,1,1,3,3,4,6,1,3,"120000","Applied Behavioral Science","16","homemaker full time parent",2,1,0,"21",-13.8,-15.1333333333333,2.03692511159862,1.02693631346264,1.03610048045102,1.00095326109366,0,1,0
"172","2n0R4z0W","Motor Function",75,65,10,25,"Yes to treatment",77,830.505000019912,0.153846153846154,40,38,43,38,32,19,23,17,23,19,6,20,24,24,0,4,2,6,4,8,8,8,8,8,1,0,0,0,1,1,5.5,5.25,5.75,30,1,1,1,7,1,"2",45,2,3,1,1,3,3,4,6,1,3,"120000","Applied Behavioral Science","16","homemaker full time parent",2,1,0,"22",26.2,-20.1333333333333,2.03692511159862,1.02693631346264,1.03610048045102,1.00095326109366,0,1,0
"173","2n0R4z0W","Motor Function",75,35,35,30,"No to treatment",77,5903.40000001015,1,40,38,43,38,32,19,23,17,23,19,6,20,24,24,0,4,2,6,4,8,8,8,8,8,1,0,0,0,1,1,5.5,5.25,5.75,30,1,1,1,7,1,"2",45,2,3,1,1,3,3,4,6,1,3,"120000","Applied Behavioral Science","16","homemaker full time parent",2,1,0,"23",-3.8,4.86666666666667,2.03692511159862,1.02693631346264,1.03610048045102,1.00095326109366,0,1,0
"174","2n0R4z0W","Motor Function",75,60,10,30,"Yes to treatment",77,1702.47000001837,0.166666666666667,40,38,43,38,32,19,23,17,23,19,6,20,24,24,0,4,2,6,4,8,8,8,8,8,1,0,0,0,1,1,5.5,5.25,5.75,30,1,1,1,7,1,"2",45,2,3,1,1,3,3,4,6,1,3,"120000","Applied Behavioral Science","16","homemaker full time parent",2,1,0,"24",21.2,-20.1333333333333,2.03692511159862,1.02693631346264,1.03610048045102,1.00095326109366,0,1,0
"175","2n0R4z0W","Motor Function",75,35,55,10,"Yes to treatment",90,18558.6599999806,1.57142857142857,40,38,43,38,32,19,23,17,23,19,6,20,24,24,0,4,2,6,4,8,8,8,8,8,1,0,0,0,1,1,5.5,5.25,5.75,30,1,1,1,7,1,"2",45,2,3,1,1,3,3,4,6,1,3,"120000","Applied Behavioral Science","16","homemaker full time parent",2,1,0,"25",-3.8,24.8666666666667,2.03692511159862,1.02693631346264,1.03610048045102,1.00095326109366,0,1,0
"176","2n0R4z0W","Motor Function",75,50,10,40,"Yes to treatment",90,1853.30999997677,0.2,40,38,43,38,32,19,23,17,23,19,6,20,24,24,0,4,2,6,4,8,8,8,8,8,1,0,0,0,1,1,5.5,5.25,5.75,30,1,1,1,7,1,"2",45,2,3,1,1,3,3,4,6,1,3,"120000","Applied Behavioral Science","16","homemaker full time parent",2,1,0,"26",11.2,-20.1333333333333,2.03692511159862,1.02693631346264,1.03610048045102,1.00095326109366,0,1,0
"177","2n0R4z0W","Motor Function",75,35,55,10,"Yes to treatment",77,3223.41500001494,1.57142857142857,40,38,43,38,32,19,23,17,23,19,6,20,24,24,0,4,2,6,4,8,8,8,8,8,1,0,0,0,1,1,5.5,5.25,5.75,30,1,1,1,7,1,"2",45,2,3,1,1,3,3,4,6,1,3,"120000","Applied Behavioral Science","16","homemaker full time parent",2,1,0,"27",-3.8,24.8666666666667,2.03692511159862,1.02693631346264,1.03610048045102,1.00095326109366,0,1,0
"178","2n0R4z0W","Motor Function",75,55,20,25,"Yes to treatment",77,1783.46999996575,0.363636363636364,40,38,43,38,32,19,23,17,23,19,6,20,24,24,0,4,2,6,4,8,8,8,8,8,1,0,0,0,1,1,5.5,5.25,5.75,30,1,1,1,7,1,"2",45,2,3,1,1,3,3,4,6,1,3,"120000","Applied Behavioral Science","16","homemaker full time parent",2,1,0,"28",16.2,-10.1333333333333,2.03692511159862,1.02693631346264,1.03610048045102,1.00095326109366,0,1,0
"179","2n0R4z0W","Motor Function",75,50,45,5,"Yes to treatment",77,1175.18999997992,0.9,40,38,43,38,32,19,23,17,23,19,6,20,24,24,0,4,2,6,4,8,8,8,8,8,1,0,0,0,1,1,5.5,5.25,5.75,30,1,1,1,7,1,"2",45,2,3,1,1,3,3,4,6,1,3,"120000","Applied Behavioral Science","16","homemaker full time parent",2,1,0,"29",11.2,14.8666666666667,2.03692511159862,1.02693631346264,1.03610048045102,1.00095326109366,0,1,0
"180","2n0R4z0W","Motor Function",75,20,65,15,"Yes to treatment",77,3157.76499995263,3.25,40,38,43,38,32,19,23,17,23,19,6,20,24,24,0,4,2,6,4,8,8,8,8,8,1,0,0,0,1,1,5.5,5.25,5.75,30,1,1,1,7,1,"2",45,2,3,1,1,3,3,4,6,1,3,"120000","Applied Behavioral Science","16","homemaker full time parent",2,1,0,"30",-18.8,34.8666666666667,2.03692511159862,1.02693631346264,1.03610048045102,1.00095326109366,0,1,0
"181","2n0R4z0W","Motor Function",75,10,80,10,"No to treatment",90,4695.16000000294,8,40,38,43,38,32,19,23,17,23,19,6,20,24,24,0,4,2,6,4,8,8,8,8,8,1,0,0,0,1,1,5.5,5.25,5.75,30,1,1,1,7,1,"2",45,2,3,1,1,3,3,4,6,1,3,"120000","Applied Behavioral Science","16","homemaker full time parent",2,1,0,"31",-28.8,49.8666666666667,2.03692511159862,1.02693631346264,1.03610048045102,1.00095326109366,0,1,0
"182","2n0R4z0W","Motor Function",75,45,10,45,"No to treatment",77,4447.34000001336,0.222222222222222,40,38,43,38,32,19,23,17,23,19,6,20,24,24,0,4,2,6,4,8,8,8,8,8,1,0,0,0,1,1,5.5,5.25,5.75,30,1,1,1,7,1,"2",45,2,3,1,1,3,3,4,6,1,3,"120000","Applied Behavioral Science","16","homemaker full time parent",2,1,0,"32",6.2,-20.1333333333333,2.03692511159862,1.02693631346264,1.03610048045102,1.00095326109366,0,1,0
"183","2n0R4z0W","Motor Function",75,45,30,25,"Yes to treatment",77,1311.50499999058,0.666666666666667,40,38,43,38,32,19,23,17,23,19,6,20,24,24,0,4,2,6,4,8,8,8,8,8,1,0,0,0,1,1,5.5,5.25,5.75,30,1,1,1,7,1,"2",45,2,3,1,1,3,3,4,6,1,3,"120000","Applied Behavioral Science","16","homemaker full time parent",2,1,0,"33",6.2,-0.133333333333333,2.03692511159862,1.02693631346264,1.03610048045102,1.00095326109366,0,1,0
"184","2n0R4z0W","Motor Function",75,40,40,20,"Yes to treatment",90,1079.30500002112,1,40,38,43,38,32,19,23,17,23,19,6,20,24,24,0,4,2,6,4,8,8,8,8,8,1,0,0,0,1,1,5.5,5.25,5.75,30,1,1,1,7,1,"2",45,2,3,1,1,3,3,4,6,1,3,"120000","Applied Behavioral Science","16","homemaker full time parent",2,1,0,"34",1.2,9.86666666666667,2.03692511159862,1.02693631346264,1.03610048045102,1.00095326109366,0,1,0
"185","2n0R4z0W","Motor Function",75,5,65,30,"Yes to treatment",77,1935.49499998335,13,40,38,43,38,32,19,23,17,23,19,6,20,24,24,0,4,2,6,4,8,8,8,8,8,1,0,0,0,1,1,5.5,5.25,5.75,30,1,1,1,7,1,"2",45,2,3,1,1,3,3,4,6,1,3,"120000","Applied Behavioral Science","16","homemaker full time parent",2,1,0,"35",-33.8,34.8666666666667,2.03692511159862,1.02693631346264,1.03610048045102,1.00095326109366,0,1,0
"186","2n0R4z0W","Motor Function",75,45,40,15,"No to treatment",77,6150.51000000676,0.888888888888889,40,38,43,38,32,19,23,17,23,19,6,20,24,24,0,4,2,6,4,8,8,8,8,8,1,0,0,0,1,1,5.5,5.25,5.75,30,1,1,1,7,1,"2",45,2,3,1,1,3,3,4,6,1,3,"120000","Applied Behavioral Science","16","homemaker full time parent",2,1,0,"36",6.2,9.86666666666667,2.03692511159862,1.02693631346264,1.03610048045102,1.00095326109366,0,1,0
"187","2n0R4z0W","Motor Function",75,15,60,25,"No to treatment",77,12503.8599999971,4,40,38,43,38,32,19,23,17,23,19,6,20,24,24,0,4,2,6,4,8,8,8,8,8,1,0,0,0,1,1,5.5,5.25,5.75,30,1,1,1,7,1,"2",45,2,3,1,1,3,3,4,6,1,3,"120000","Applied Behavioral Science","16","homemaker full time parent",2,1,0,"37",-23.8,29.8666666666667,2.03692511159862,1.02693631346264,1.03610048045102,1.00095326109366,0,1,0
"188","2n0R4z0W","Motor Function",75,15,65,20,"Yes to treatment",90,959.569999948144,4.33333333333333,40,38,43,38,32,19,23,17,23,19,6,20,24,24,0,4,2,6,4,8,8,8,8,8,1,0,0,0,1,1,5.5,5.25,5.75,30,1,1,1,7,1,"2",45,2,3,1,1,3,3,4,6,1,3,"120000","Applied Behavioral Science","16","homemaker full time parent",2,1,0,"38",-23.8,34.8666666666667,2.03692511159862,1.02693631346264,1.03610048045102,1.00095326109366,0,1,0
"189","2n0R4z0W","Motor Function",75,35,20,45,"Yes to treatment",90,18166.3050000207,0.571428571428571,40,38,43,38,32,19,23,17,23,19,6,20,24,24,0,4,2,6,4,8,8,8,8,8,1,0,0,0,1,1,5.5,5.25,5.75,30,1,1,1,7,1,"2",45,2,3,1,1,3,3,4,6,1,3,"120000","Applied Behavioral Science","16","homemaker full time parent",2,1,0,"39",-3.8,-10.1333333333333,2.03692511159862,1.02693631346264,1.03610048045102,1.00095326109366,0,1,0
"190","2n0R4z0W","Motor Function",75,5,25,70,"Yes to treatment",77,840.124999987893,5,40,38,43,38,32,19,23,17,23,19,6,20,24,24,0,4,2,6,4,8,8,8,8,8,1,0,0,0,1,1,5.5,5.25,5.75,30,1,1,1,7,1,"2",45,2,3,1,1,3,3,4,6,1,3,"120000","Applied Behavioral Science","16","homemaker full time parent",2,1,0,"40",-33.8,-5.13333333333333,2.03692511159862,1.02693631346264,1.03610048045102,1.00095326109366,0,1,0
"191","2n0R4z0W","Motor Function",75,5,5,90,"Yes to treatment",90,1200.08500001859,1,40,38,43,38,32,19,23,17,23,19,6,20,24,24,0,4,2,6,4,8,8,8,8,8,1,0,0,0,1,1,5.5,5.25,5.75,30,1,1,1,7,1,"2",45,2,3,1,1,3,3,4,6,1,3,"120000","Applied Behavioral Science","16","homemaker full time parent",2,1,0,"41",-33.8,-25.1333333333333,2.03692511159862,1.02693631346264,1.03610048045102,1.00095326109366,0,1,0
"192","2n0R4z0W","Motor Function",75,10,30,60,"No to treatment",90,2102.49499999918,3,40,38,43,38,32,19,23,17,23,19,6,20,24,24,0,4,2,6,4,8,8,8,8,8,1,0,0,0,1,1,5.5,5.25,5.75,30,1,1,1,7,1,"2",45,2,3,1,1,3,3,4,6,1,3,"120000","Applied Behavioral Science","16","homemaker full time parent",2,1,0,"42",-28.8,-0.133333333333333,2.03692511159862,1.02693631346264,1.03610048045102,1.00095326109366,0,1,0
"193","2n0R4z0W","Motor Function",75,70,20,10,"No to treatment",90,4257.01499998104,0.285714285714286,40,38,43,38,32,19,23,17,23,19,6,20,24,24,0,4,2,6,4,8,8,8,8,8,1,0,0,0,1,1,5.5,5.25,5.75,30,1,1,1,7,1,"2",45,2,3,1,1,3,3,4,6,1,3,"120000","Applied Behavioral Science","16","homemaker full time parent",2,1,0,"43",31.2,-10.1333333333333,2.03692511159862,1.02693631346264,1.03610048045102,1.00095326109366,0,1,0
"194","2n0R4z0W","Motor Function",75,60,30,10,"Yes to treatment",90,1326.8350000144,0.5,40,38,43,38,32,19,23,17,23,19,6,20,24,24,0,4,2,6,4,8,8,8,8,8,1,0,0,0,1,1,5.5,5.25,5.75,30,1,1,1,7,1,"2",45,2,3,1,1,3,3,4,6,1,3,"120000","Applied Behavioral Science","16","homemaker full time parent",2,1,0,"44",21.2,-0.133333333333333,2.03692511159862,1.02693631346264,1.03610048045102,1.00095326109366,0,1,0
"195","2n0R4z0W","Motor Function",75,20,25,55,"Yes to treatment",90,1567.25500000175,1.25,40,38,43,38,32,19,23,17,23,19,6,20,24,24,0,4,2,6,4,8,8,8,8,8,1,0,0,0,1,1,5.5,5.25,5.75,30,1,1,1,7,1,"2",45,2,3,1,1,3,3,4,6,1,3,"120000","Applied Behavioral Science","16","homemaker full time parent",2,1,0,"45",-18.8,-5.13333333333333,2.03692511159862,1.02693631346264,1.03610048045102,1.00095326109366,0,1,0
"196","2n0R4z0W","Motor Function",75,65,15,20,"Yes to treatment",90,1392.75499997893,0.230769230769231,40,38,43,38,32,19,23,17,23,19,6,20,24,24,0,4,2,6,4,8,8,8,8,8,1,0,0,0,1,1,5.5,5.25,5.75,30,1,1,1,7,1,"2",45,2,3,1,1,3,3,4,6,1,3,"120000","Applied Behavioral Science","16","homemaker full time parent",2,1,0,"46",26.2,-15.1333333333333,2.03692511159862,1.02693631346264,1.03610048045102,1.00095326109366,0,1,0
"197","2n0R4z0W","Motor Function",75,50,20,30,"Yes to treatment",77,1040.25999997975,0.4,40,38,43,38,32,19,23,17,23,19,6,20,24,24,0,4,2,6,4,8,8,8,8,8,1,0,0,0,1,1,5.5,5.25,5.75,30,1,1,1,7,1,"2",45,2,3,1,1,3,3,4,6,1,3,"120000","Applied Behavioral Science","16","homemaker full time parent",2,1,0,"47",11.2,-10.1333333333333,2.03692511159862,1.02693631346264,1.03610048045102,1.00095326109366,0,1,0
"198","2n0R4z0W","Motor Function",75,50,15,35,"No to treatment",90,4854.91500003263,0.3,40,38,43,38,32,19,23,17,23,19,6,20,24,24,0,4,2,6,4,8,8,8,8,8,1,0,0,0,1,1,5.5,5.25,5.75,30,1,1,1,7,1,"2",45,2,3,1,1,3,3,4,6,1,3,"120000","Applied Behavioral Science","16","homemaker full time parent",2,1,0,"48",11.2,-15.1333333333333,2.03692511159862,1.02693631346264,1.03610048045102,1.00095326109366,0,1,0
"199","2n0R4z0W","Motor Function",75,20,40,40,"Yes to treatment",77,2680.23500003619,2,40,38,43,38,32,19,23,17,23,19,6,20,24,24,0,4,2,6,4,8,8,8,8,8,1,0,0,0,1,1,5.5,5.25,5.75,30,1,1,1,7,1,"2",45,2,3,1,1,3,3,4,6,1,3,"120000","Applied Behavioral Science","16","homemaker full time parent",2,1,0,"49",-18.8,9.86666666666667,2.03692511159862,1.02693631346264,1.03610048045102,1.00095326109366,0,1,0
"200","2n0R4z0W","Motor Function",75,45,50,5,"Yes to treatment",90,4983.73499995796,1.11111111111111,40,38,43,38,32,19,23,17,23,19,6,20,24,24,0,4,2,6,4,8,8,8,8,8,1,0,0,0,1,1,5.5,5.25,5.75,30,1,1,1,7,1,"2",45,2,3,1,1,3,3,4,6,1,3,"120000","Applied Behavioral Science","16","homemaker full time parent",2,1,0,"50",6.2,19.8666666666667,2.03692511159862,1.02693631346264,1.03610048045102,1.00095326109366,0,1,0
"201","2n0R4z0W","Motor Function",75,50,30,20,"Yes to treatment",90,4638.70999997016,0.6,40,38,43,38,32,19,23,17,23,19,6,20,24,24,0,4,2,6,4,8,8,8,8,8,1,0,0,0,1,1,5.5,5.25,5.75,30,1,1,1,7,1,"2",45,2,3,1,1,3,3,4,6,1,3,"120000","Applied Behavioral Science","16","homemaker full time parent",2,1,0,"51",11.2,-0.133333333333333,2.03692511159862,1.02693631346264,1.03610048045102,1.00095326109366,0,1,0
"202","2n0R4z0W","Motor Function",75,50,5,45,"Yes to treatment",77,4406.94000001531,0.1,40,38,43,38,32,19,23,17,23,19,6,20,24,24,0,4,2,6,4,8,8,8,8,8,1,0,0,0,1,1,5.5,5.25,5.75,30,1,1,1,7,1,"2",45,2,3,1,1,3,3,4,6,1,3,"120000","Applied Behavioral Science","16","homemaker full time parent",2,1,0,"52",11.2,-25.1333333333333,2.03692511159862,1.02693631346264,1.03610048045102,1.00095326109366,0,1,0
"203","2n0R4z0W","Motor Function",75,40,40,20,"No to treatment",77,5310.51500001922,1,40,38,43,38,32,19,23,17,23,19,6,20,24,24,0,4,2,6,4,8,8,8,8,8,1,0,0,0,1,1,5.5,5.25,5.75,30,1,1,1,7,1,"2",45,2,3,1,1,3,3,4,6,1,3,"120000","Applied Behavioral Science","16","homemaker full time parent",2,1,0,"53",1.2,9.86666666666667,2.03692511159862,1.02693631346264,1.03610048045102,1.00095326109366,0,1,0
"204","2n0R4z0W","Motor Function",75,35,55,10,"Yes to treatment",90,6956.92500000587,1.57142857142857,40,38,43,38,32,19,23,17,23,19,6,20,24,24,0,4,2,6,4,8,8,8,8,8,1,0,0,0,1,1,5.5,5.25,5.75,30,1,1,1,7,1,"2",45,2,3,1,1,3,3,4,6,1,3,"120000","Applied Behavioral Science","16","homemaker full time parent",2,1,0,"54",-3.8,24.8666666666667,2.03692511159862,1.02693631346264,1.03610048045102,1.00095326109366,0,1,0
"205","2n0R4z0W","Motor Function",75,50,40,10,"Yes to treatment",90,1974.05499999877,0.8,40,38,43,38,32,19,23,17,23,19,6,20,24,24,0,4,2,6,4,8,8,8,8,8,1,0,0,0,1,1,5.5,5.25,5.75,30,1,1,1,7,1,"2",45,2,3,1,1,3,3,4,6,1,3,"120000","Applied Behavioral Science","16","homemaker full time parent",2,1,0,"55",11.2,9.86666666666667,2.03692511159862,1.02693631346264,1.03610048045102,1.00095326109366,0,1,0
"206","2n0R4z0W","Motor Function",75,45,25,30,"Yes to treatment",90,2904.64999998221,0.555555555555556,40,38,43,38,32,19,23,17,23,19,6,20,24,24,0,4,2,6,4,8,8,8,8,8,1,0,0,0,1,1,5.5,5.25,5.75,30,1,1,1,7,1,"2",45,2,3,1,1,3,3,4,6,1,3,"120000","Applied Behavioral Science","16","homemaker full time parent",2,1,0,"56",6.2,-5.13333333333333,2.03692511159862,1.02693631346264,1.03610048045102,1.00095326109366,0,1,0
"207","2n0R4z0W","Motor Function",75,55,20,25,"No to treatment",90,6878.78999998793,0.363636363636364,40,38,43,38,32,19,23,17,23,19,6,20,24,24,0,4,2,6,4,8,8,8,8,8,1,0,0,0,1,1,5.5,5.25,5.75,30,1,1,1,7,1,"2",45,2,3,1,1,3,3,4,6,1,3,"120000","Applied Behavioral Science","16","homemaker full time parent",2,1,0,"57",16.2,-10.1333333333333,2.03692511159862,1.02693631346264,1.03610048045102,1.00095326109366,0,1,0
"208","2n0R4z0W","Motor Function",75,55,15,30,"No to treatment",90,10485.6400000281,0.272727272727273,40,38,43,38,32,19,23,17,23,19,6,20,24,24,0,4,2,6,4,8,8,8,8,8,1,0,0,0,1,1,5.5,5.25,5.75,30,1,1,1,7,1,"2",45,2,3,1,1,3,3,4,6,1,3,"120000","Applied Behavioral Science","16","homemaker full time parent",2,1,0,"58",16.2,-15.1333333333333,2.03692511159862,1.02693631346264,1.03610048045102,1.00095326109366,0,1,0
"209","2n0R4z0W","Motor Function",75,55,20,25,"Yes to treatment",90,16775.4650000134,0.363636363636364,40,38,43,38,32,19,23,17,23,19,6,20,24,24,0,4,2,6,4,8,8,8,8,8,1,0,0,0,1,1,5.5,5.25,5.75,30,1,1,1,7,1,"2",45,2,3,1,1,3,3,4,6,1,3,"120000","Applied Behavioral Science","16","homemaker full time parent",2,1,0,"59",16.2,-10.1333333333333,2.03692511159862,1.02693631346264,1.03610048045102,1.00095326109366,0,1,0
"210","2n0R4z0W","Motor Function",75,35,20,45,"Yes to treatment",90,935.575000010431,0.571428571428571,40,38,43,38,32,19,23,17,23,19,6,20,24,24,0,4,2,6,4,8,8,8,8,8,1,0,0,0,1,1,5.5,5.25,5.75,30,1,1,1,7,1,"2",45,2,3,1,1,3,3,4,6,1,3,"120000","Applied Behavioral Science","16","homemaker full time parent",2,1,0,"60",-3.8,-10.1333333333333,2.03692511159862,1.02693631346264,1.03610048045102,1.00095326109366,0,1,0
"211","2n0R4z0W","Motor Function",75,10,10,80,"Yes to treatment",77,1415.19499995047,1,40,38,43,38,32,19,23,17,23,19,6,20,24,24,0,4,2,6,4,8,8,8,8,8,1,0,0,0,1,1,5.5,5.25,5.75,30,1,1,1,7,1,"2",45,2,3,1,1,3,3,4,6,1,3,"120000","Applied Behavioral Science","16","homemaker full time parent",2,1,0,"61",-28.8,-20.1333333333333,2.03692511159862,1.02693631346264,1.03610048045102,1.00095326109366,0,1,0
"212","2n0R4z0W","Motor Function",75,65,10,25,"Yes to treatment",77,2693.99999995949,0.153846153846154,40,38,43,38,32,19,23,17,23,19,6,20,24,24,0,4,2,6,4,8,8,8,8,8,1,0,0,0,1,1,5.5,5.25,5.75,30,1,1,1,7,1,"2",45,2,3,1,1,3,3,4,6,1,3,"120000","Applied Behavioral Science","16","homemaker full time parent",2,1,0,"62",26.2,-20.1333333333333,2.03692511159862,1.02693631346264,1.03610048045102,1.00095326109366,0,1,0
"213","2n0R4z0W","Motor Function",75,70,15,15,"No to treatment",90,4591.4299999713,0.214285714285714,40,38,43,38,32,19,23,17,23,19,6,20,24,24,0,4,2,6,4,8,8,8,8,8,1,0,0,0,1,1,5.5,5.25,5.75,30,1,1,1,7,1,"2",45,2,3,1,1,3,3,4,6,1,3,"120000","Applied Behavioral Science","16","homemaker full time parent",2,1,0,"63",31.2,-15.1333333333333,2.03692511159862,1.02693631346264,1.03610048045102,1.00095326109366,0,1,0
"214","2n0R4z0W","Motor Function",75,20,55,25,"Yes to treatment",77,1632.12999998359,2.75,40,38,43,38,32,19,23,17,23,19,6,20,24,24,0,4,2,6,4,8,8,8,8,8,1,0,0,0,1,1,5.5,5.25,5.75,30,1,1,1,7,1,"2",45,2,3,1,1,3,3,4,6,1,3,"120000","Applied Behavioral Science","16","homemaker full time parent",2,1,0,"64",-18.8,24.8666666666667,2.03692511159862,1.02693631346264,1.03610048045102,1.00095326109366,0,1,0
"215","2n0R4z0W","Motor Function",75,35,15,50,"Yes to treatment",90,3783.24000001885,0.428571428571429,40,38,43,38,32,19,23,17,23,19,6,20,24,24,0,4,2,6,4,8,8,8,8,8,1,0,0,0,1,1,5.5,5.25,5.75,30,1,1,1,7,1,"2",45,2,3,1,1,3,3,4,6,1,3,"120000","Applied Behavioral Science","16","homemaker full time parent",2,1,0,"65",-3.8,-15.1333333333333,2.03692511159862,1.02693631346264,1.03610048045102,1.00095326109366,0,1,0
"216","2n0R4z0W","Motor Function",75,50,5,45,"No to treatment",90,3798.62499999581,0.1,40,38,43,38,32,19,23,17,23,19,6,20,24,24,0,4,2,6,4,8,8,8,8,8,1,0,0,0,1,1,5.5,5.25,5.75,30,1,1,1,7,1,"2",45,2,3,1,1,3,3,4,6,1,3,"120000","Applied Behavioral Science","16","homemaker full time parent",2,1,0,"66",11.2,-25.1333333333333,2.03692511159862,1.02693631346264,1.03610048045102,1.00095326109366,0,1,0
"217","2n0R4z0W","Motor Function",75,45,35,20,"No to treatment",77,12003.144999966,0.777777777777778,40,38,43,38,32,19,23,17,23,19,6,20,24,24,0,4,2,6,4,8,8,8,8,8,1,0,0,0,1,1,5.5,5.25,5.75,30,1,1,1,7,1,"2",45,2,3,1,1,3,3,4,6,1,3,"120000","Applied Behavioral Science","16","homemaker full time parent",2,1,0,"67",6.2,4.86666666666667,2.03692511159862,1.02693631346264,1.03610048045102,1.00095326109366,0,1,0
"218","2n0R4z0W","Motor Function",75,35,30,35,"Yes to treatment",77,1734.41500001354,0.857142857142857,40,38,43,38,32,19,23,17,23,19,6,20,24,24,0,4,2,6,4,8,8,8,8,8,1,0,0,0,1,1,5.5,5.25,5.75,30,1,1,1,7,1,"2",45,2,3,1,1,3,3,4,6,1,3,"120000","Applied Behavioral Science","16","homemaker full time parent",2,1,0,"68",-3.8,-0.133333333333333,2.03692511159862,1.02693631346264,1.03610048045102,1.00095326109366,0,1,0
"219","2n0R4z0W","Motor Function",75,30,30,40,"Yes to treatment",90,1310.47500000568,1,40,38,43,38,32,19,23,17,23,19,6,20,24,24,0,4,2,6,4,8,8,8,8,8,1,0,0,0,1,1,5.5,5.25,5.75,30,1,1,1,7,1,"2",45,2,3,1,1,3,3,4,6,1,3,"120000","Applied Behavioral Science","16","homemaker full time parent",2,1,0,"69",-8.8,-0.133333333333333,2.03692511159862,1.02693631346264,1.03610048045102,1.00095326109366,0,1,0
"220","2n0R4z0W","Motor Function",75,30,5,65,"No to treatment",77,7687.33499996597,0.166666666666667,40,38,43,38,32,19,23,17,23,19,6,20,24,24,0,4,2,6,4,8,8,8,8,8,1,0,0,0,1,1,5.5,5.25,5.75,30,1,1,1,7,1,"2",45,2,3,1,1,3,3,4,6,1,3,"120000","Applied Behavioral Science","16","homemaker full time parent",2,1,0,"70",-8.8,-25.1333333333333,2.03692511159862,1.02693631346264,1.03610048045102,1.00095326109366,0,1,0
"221","2n0R4z0W","Motor Function",75,30,60,10,"Yes to treatment",90,2190.43000001693,2,40,38,43,38,32,19,23,17,23,19,6,20,24,24,0,4,2,6,4,8,8,8,8,8,1,0,0,0,1,1,5.5,5.25,5.75,30,1,1,1,7,1,"2",45,2,3,1,1,3,3,4,6,1,3,"120000","Applied Behavioral Science","16","homemaker full time parent",2,1,0,"71",-8.8,29.8666666666667,2.03692511159862,1.02693631346264,1.03610048045102,1.00095326109366,0,1,0
"222","2n0R4z0W","Motor Function",75,5,35,60,"No to treatment",77,2431.93500000052,7,40,38,43,38,32,19,23,17,23,19,6,20,24,24,0,4,2,6,4,8,8,8,8,8,1,0,0,0,1,1,5.5,5.25,5.75,30,1,1,1,7,1,"2",45,2,3,1,1,3,3,4,6,1,3,"120000","Applied Behavioral Science","16","homemaker full time parent",2,1,0,"72",-33.8,4.86666666666667,2.03692511159862,1.02693631346264,1.03610048045102,1.00095326109366,0,1,0
"223","2n0R4z0W","Motor Function",75,35,10,55,"No to treatment",90,5487.36000002827,0.285714285714286,40,38,43,38,32,19,23,17,23,19,6,20,24,24,0,4,2,6,4,8,8,8,8,8,1,0,0,0,1,1,5.5,5.25,5.75,30,1,1,1,7,1,"2",45,2,3,1,1,3,3,4,6,1,3,"120000","Applied Behavioral Science","16","homemaker full time parent",2,1,0,"73",-3.8,-20.1333333333333,2.03692511159862,1.02693631346264,1.03610048045102,1.00095326109366,0,1,0
"224","2n0R4z0W","Motor Function",75,40,50,10,"Yes to treatment",90,926.375000039116,1.25,40,38,43,38,32,19,23,17,23,19,6,20,24,24,0,4,2,6,4,8,8,8,8,8,1,0,0,0,1,1,5.5,5.25,5.75,30,1,1,1,7,1,"2",45,2,3,1,1,3,3,4,6,1,3,"120000","Applied Behavioral Science","16","homemaker full time parent",2,1,0,"74",1.2,19.8666666666667,2.03692511159862,1.02693631346264,1.03610048045102,1.00095326109366,0,1,0
"225","2n0R4z0W","Motor Function",75,65,5,30,"No to treatment",90,8151.40000003157,0.0769230769230769,40,38,43,38,32,19,23,17,23,19,6,20,24,24,0,4,2,6,4,8,8,8,8,8,1,0,0,0,1,1,5.5,5.25,5.75,30,1,1,1,7,1,"2",45,2,3,1,1,3,3,4,6,1,3,"120000","Applied Behavioral Science","16","homemaker full time parent",2,1,0,"75",26.2,-25.1333333333333,2.03692511159862,1.02693631346264,1.03610048045102,1.00095326109366,0,1,0
"226","4lsMLrPn","Motor Function",75,55,15,30,"No to treatment",90,677.924999996321,0.272727272727273,29,35,43,41,43,19,24,7,20,10,19,17,10,14,5,8,8,7,8,6,6,4,5,6,1,1,1,1,0,0,5.625,5.25,6,16,1,6,4,1,6,"2",27,4,2,1,7,1,1,1,1,1,2,"76000","English","15","Group fitness instructor (currently unemployed due to coronavirus)",1,1,0,"1",22.3333333333333,-17.3333333333333,0.165665195111689,0.563629711574527,1.86524461688823,1.01315979484325,0,0,0
"227","4lsMLrPn","Motor Function",75,35,20,45,"No to treatment",90,1075.90499997605,0.571428571428571,29,35,43,41,43,19,24,7,20,10,19,17,10,14,5,8,8,7,8,6,6,4,5,6,1,1,1,1,0,0,5.625,5.25,6,16,1,6,4,1,6,"2",27,4,2,1,7,1,1,1,1,1,2,"76000","English","15","Group fitness instructor (currently unemployed due to coronavirus)",1,1,0,"2",2.33333333333334,-12.3333333333333,0.165665195111689,0.563629711574527,1.86524461688823,1.01315979484325,0,0,0
"228","4lsMLrPn","Motor Function",75,35,45,20,"Yes to treatment",90,1286.28999998909,1.28571428571429,29,35,43,41,43,19,24,7,20,10,19,17,10,14,5,8,8,7,8,6,6,4,5,6,1,1,1,1,0,0,5.625,5.25,6,16,1,6,4,1,6,"2",27,4,2,1,7,1,1,1,1,1,2,"76000","English","15","Group fitness instructor (currently unemployed due to coronavirus)",1,1,0,"3",2.33333333333334,12.6666666666667,0.165665195111689,0.563629711574527,1.86524461688823,1.01315979484325,0,0,0
"229","4lsMLrPn","Motor Function",75,10,45,45,"Yes to treatment",77,677.640000008978,4.5,29,35,43,41,43,19,24,7,20,10,19,17,10,14,5,8,8,7,8,6,6,4,5,6,1,1,1,1,0,0,5.625,5.25,6,16,1,6,4,1,6,"2",27,4,2,1,7,1,1,1,1,1,2,"76000","English","15","Group fitness instructor (currently unemployed due to coronavirus)",1,1,0,"4",-22.6666666666667,12.6666666666667,0.165665195111689,0.563629711574527,1.86524461688823,1.01315979484325,0,0,0
"230","4lsMLrPn","Motor Function",75,55,15,30,"No to treatment",77,1235.97000000882,0.272727272727273,29,35,43,41,43,19,24,7,20,10,19,17,10,14,5,8,8,7,8,6,6,4,5,6,1,1,1,1,0,0,5.625,5.25,6,16,1,6,4,1,6,"2",27,4,2,1,7,1,1,1,1,1,2,"76000","English","15","Group fitness instructor (currently unemployed due to coronavirus)",1,1,0,"5",22.3333333333333,-17.3333333333333,0.165665195111689,0.563629711574527,1.86524461688823,1.01315979484325,0,0,0
"231","4lsMLrPn","Motor Function",75,30,10,60,"No to treatment",90,660.41499999119,0.333333333333333,29,35,43,41,43,19,24,7,20,10,19,17,10,14,5,8,8,7,8,6,6,4,5,6,1,1,1,1,0,0,5.625,5.25,6,16,1,6,4,1,6,"2",27,4,2,1,7,1,1,1,1,1,2,"76000","English","15","Group fitness instructor (currently unemployed due to coronavirus)",1,1,0,"6",-2.66666666666666,-22.3333333333333,0.165665195111689,0.563629711574527,1.86524461688823,1.01315979484325,0,0,0
"232","4lsMLrPn","Motor Function",75,55,25,20,"No to treatment",90,698.139999993145,0.454545454545455,29,35,43,41,43,19,24,7,20,10,19,17,10,14,5,8,8,7,8,6,6,4,5,6,1,1,1,1,0,0,5.625,5.25,6,16,1,6,4,1,6,"2",27,4,2,1,7,1,1,1,1,1,2,"76000","English","15","Group fitness instructor (currently unemployed due to coronavirus)",1,1,0,"7",22.3333333333333,-7.33333333333334,0.165665195111689,0.563629711574527,1.86524461688823,1.01315979484325,0,0,0
"233","4lsMLrPn","Motor Function",75,10,65,25,"Yes to treatment",77,665.650000009919,6.5,29,35,43,41,43,19,24,7,20,10,19,17,10,14,5,8,8,7,8,6,6,4,5,6,1,1,1,1,0,0,5.625,5.25,6,16,1,6,4,1,6,"2",27,4,2,1,7,1,1,1,1,1,2,"76000","English","15","Group fitness instructor (currently unemployed due to coronavirus)",1,1,0,"8",-22.6666666666667,32.6666666666667,0.165665195111689,0.563629711574527,1.86524461688823,1.01315979484325,0,0,0
"234","4lsMLrPn","Motor Function",75,5,10,85,"Yes to treatment",90,1660.7199999853,2,29,35,43,41,43,19,24,7,20,10,19,17,10,14,5,8,8,7,8,6,6,4,5,6,1,1,1,1,0,0,5.625,5.25,6,16,1,6,4,1,6,"2",27,4,2,1,7,1,1,1,1,1,2,"76000","English","15","Group fitness instructor (currently unemployed due to coronavirus)",1,1,0,"9",-27.6666666666667,-22.3333333333333,0.165665195111689,0.563629711574527,1.86524461688823,1.01315979484325,0,0,0
"235","4lsMLrPn","Motor Function",75,45,35,20,"No to treatment",77,1778.42499999679,0.777777777777778,29,35,43,41,43,19,24,7,20,10,19,17,10,14,5,8,8,7,8,6,6,4,5,6,1,1,1,1,0,0,5.625,5.25,6,16,1,6,4,1,6,"2",27,4,2,1,7,1,1,1,1,1,2,"76000","English","15","Group fitness instructor (currently unemployed due to coronavirus)",1,1,0,"10",12.3333333333333,2.66666666666666,0.165665195111689,0.563629711574527,1.86524461688823,1.01315979484325,0,0,0
"236","4lsMLrPn","Motor Function",75,20,5,75,"No to treatment",77,812.704999989364,0.25,29,35,43,41,43,19,24,7,20,10,19,17,10,14,5,8,8,7,8,6,6,4,5,6,1,1,1,1,0,0,5.625,5.25,6,16,1,6,4,1,6,"2",27,4,2,1,7,1,1,1,1,1,2,"76000","English","15","Group fitness instructor (currently unemployed due to coronavirus)",1,1,0,"11",-12.6666666666667,-27.3333333333333,0.165665195111689,0.563629711574527,1.86524461688823,1.01315979484325,0,0,0
"237","4lsMLrPn","Motor Function",75,45,50,5,"Yes to treatment",90,609.125000017229,1.11111111111111,29,35,43,41,43,19,24,7,20,10,19,17,10,14,5,8,8,7,8,6,6,4,5,6,1,1,1,1,0,0,5.625,5.25,6,16,1,6,4,1,6,"2",27,4,2,1,7,1,1,1,1,1,2,"76000","English","15","Group fitness instructor (currently unemployed due to coronavirus)",1,1,0,"12",12.3333333333333,17.6666666666667,0.165665195111689,0.563629711574527,1.86524461688823,1.01315979484325,0,0,0
"238","4lsMLrPn","Motor Function",75,10,25,65,"Yes to treatment",90,1840.95000001253,2.5,29,35,43,41,43,19,24,7,20,10,19,17,10,14,5,8,8,7,8,6,6,4,5,6,1,1,1,1,0,0,5.625,5.25,6,16,1,6,4,1,6,"2",27,4,2,1,7,1,1,1,1,1,2,"76000","English","15","Group fitness instructor (currently unemployed due to coronavirus)",1,1,0,"13",-22.6666666666667,-7.33333333333334,0.165665195111689,0.563629711574527,1.86524461688823,1.01315979484325,0,0,0
"239","4lsMLrPn","Motor Function",75,25,55,20,"Yes to treatment",77,633.024999988265,2.2,29,35,43,41,43,19,24,7,20,10,19,17,10,14,5,8,8,7,8,6,6,4,5,6,1,1,1,1,0,0,5.625,5.25,6,16,1,6,4,1,6,"2",27,4,2,1,7,1,1,1,1,1,2,"76000","English","15","Group fitness instructor (currently unemployed due to coronavirus)",1,1,0,"14",-7.66666666666666,22.6666666666667,0.165665195111689,0.563629711574527,1.86524461688823,1.01315979484325,0,0,0
"240","4lsMLrPn","Motor Function",75,25,15,60,"No to treatment",90,2045.28999998001,0.6,29,35,43,41,43,19,24,7,20,10,19,17,10,14,5,8,8,7,8,6,6,4,5,6,1,1,1,1,0,0,5.625,5.25,6,16,1,6,4,1,6,"2",27,4,2,1,7,1,1,1,1,1,2,"76000","English","15","Group fitness instructor (currently unemployed due to coronavirus)",1,1,0,"15",-7.66666666666666,-17.3333333333333,0.165665195111689,0.563629711574527,1.86524461688823,1.01315979484325,0,0,0
"241","4lsMLrPn","Motor Function",75,60,20,20,"No to treatment",77,840.505000000121,0.333333333333333,29,35,43,41,43,19,24,7,20,10,19,17,10,14,5,8,8,7,8,6,6,4,5,6,1,1,1,1,0,0,5.625,5.25,6,16,1,6,4,1,6,"2",27,4,2,1,7,1,1,1,1,1,2,"76000","English","15","Group fitness instructor (currently unemployed due to coronavirus)",1,1,0,"16",27.3333333333333,-12.3333333333333,0.165665195111689,0.563629711574527,1.86524461688823,1.01315979484325,0,0,0
"242","4lsMLrPn","Motor Function",75,35,15,50,"No to treatment",77,738.699999987148,0.428571428571429,29,35,43,41,43,19,24,7,20,10,19,17,10,14,5,8,8,7,8,6,6,4,5,6,1,1,1,1,0,0,5.625,5.25,6,16,1,6,4,1,6,"2",27,4,2,1,7,1,1,1,1,1,2,"76000","English","15","Group fitness instructor (currently unemployed due to coronavirus)",1,1,0,"17",2.33333333333334,-17.3333333333333,0.165665195111689,0.563629711574527,1.86524461688823,1.01315979484325,0,0,0
