,user_id,condition,total_trials,risk,gain,no_effect,experimental_treatment_selected,key_press,rt,ratio,Extraversion,Agreeableness,Conscientiousness,Negative_Emotionality,Open_Mindedness,Harm,Fairness,Loyalty,Athority,Sancticy,PerspectiveTaking,Fantasy,EmpathicConcern,PersonalDistress,POWER,ACHIEVEMENT,HEDONISM,STIMULATION,SELF.DIRECTION,UNIVERSALISM,BENEVOLENCE,TRADITION,CONFORMITY,SECURITY,Lying,Assasination,Torture,Murder,Stealing,ForcedSterilization,SNS.total,SNS.ability,SNS.preference,republican,democrat,independent,conservative,liberal,sex,age,race_ethnicity,education,ReligionRaised,ReligionNow,Religiosity,Spirituality,AttendChurch,ReligiousActivity,meditation,RelationshipStatus,Income,Major,YearOfEducation,EmploymentStatus,Political_Party,HumanMind,Optimize,trial_index,risk_c,gain_c,Intercept,Risk_Beta,Gain_Beta,Interaction_Beta,lambda
1,1mvqe1Y3,Language (spoken),75,70,5,25,No to treatment,90,591.98,0.071428571,38,42,36,36,37,24,24,14,18,16,23,5,15,0,7,8,8,4,8,3,8,4,4,4,1,1,1,1,1,1,6,6,6,3,2,5,5,4,1,47,2,4,1,7,1,1,2,2,1,5,175000,Business Administration,18,Full time - business owner - construction services,2,0,0,1,32.06666667,-25.06666667,3.09E-05,0.737258642,1.518188397,1.003108741,-0.48561736
2,1mvqe1Y3,Language (spoken),75,20,50,30,Yes to treatment,77,792.695,2.5,38,42,36,36,37,24,24,14,18,16,23,5,15,0,7,8,8,4,8,3,8,4,4,4,1,1,1,1,1,1,6,6,6,3,2,5,5,4,1,47,2,4,1,7,1,1,2,2,1,5,175000,Business Administration,18,Full time - business owner - construction services,2,0,0,2,-17.93333333,19.93333333,3.09E-05,0.737258642,1.518188397,1.003108741,-0.48561736
3,1mvqe1Y3,Language (spoken),75,5,20,75,No to treatment,90,664.955,4,38,42,36,36,37,24,24,14,18,16,23,5,15,0,7,8,8,4,8,3,8,4,4,4,1,1,1,1,1,1,6,6,6,3,2,5,5,4,1,47,2,4,1,7,1,1,2,2,1,5,175000,Business Administration,18,Full time - business owner - construction services,2,0,0,3,-32.93333333,-10.06666667,3.09E-05,0.737258642,1.518188397,1.003108741,-0.48561736
4,1mvqe1Y3,Language (spoken),75,5,25,70,No to treatment,77,648.54,5,38,42,36,36,37,24,24,14,18,16,23,5,15,0,7,8,8,4,8,3,8,4,4,4,1,1,1,1,1,1,6,6,6,3,2,5,5,4,1,47,2,4,1,7,1,1,2,2,1,5,175000,Business Administration,18,Full time - business owner - construction services,2,0,0,4,-32.93333333,-5.066666667,3.09E-05,0.737258642,1.518188397,1.003108741,-0.48561736
5,1mvqe1Y3,Language (spoken),75,60,5,35,No to treatment,77,779.14,0.083333333,38,42,36,36,37,24,24,14,18,16,23,5,15,0,7,8,8,4,8,3,8,4,4,4,1,1,1,1,1,1,6,6,6,3,2,5,5,4,1,47,2,4,1,7,1,1,2,2,1,5,175000,Business Administration,18,Full time - business owner - construction services,2,0,0,5,22.06666667,-25.06666667,3.09E-05,0.737258642,1.518188397,1.003108741,-0.48561736
6,1mvqe1Y3,Language (spoken),75,65,20,15,No to treatment,77,1406.015,0.307692308,38,42,36,36,37,24,24,14,18,16,23,5,15,0,7,8,8,4,8,3,8,4,4,4,1,1,1,1,1,1,6,6,6,3,2,5,5,4,1,47,2,4,1,7,1,1,2,2,1,5,175000,Business Administration,18,Full time - business owner - construction services,2,0,0,6,27.06666667,-10.06666667,3.09E-05,0.737258642,1.518188397,1.003108741,-0.48561736
7,1mvqe1Y3,Language (spoken),75,10,30,60,Yes to treatment,77,1683.775,3,38,42,36,36,37,24,24,14,18,16,23,5,15,0,7,8,8,4,8,3,8,4,4,4,1,1,1,1,1,1,6,6,6,3,2,5,5,4,1,47,2,4,1,7,1,1,2,2,1,5,175000,Business Administration,18,Full time - business owner - construction services,2,0,0,7,-27.93333333,-0.066666667,3.09E-05,0.737258642,1.518188397,1.003108741,-0.48561736
8,1mvqe1Y3,Language (spoken),75,65,10,25,No to treatment,90,1049.92,0.153846154,38,42,36,36,37,24,24,14,18,16,23,5,15,0,7,8,8,4,8,3,8,4,4,4,1,1,1,1,1,1,6,6,6,3,2,5,5,4,1,47,2,4,1,7,1,1,2,2,1,5,175000,Business Administration,18,Full time - business owner - construction services,2,0,0,8,27.06666667,-20.06666667,3.09E-05,0.737258642,1.518188397,1.003108741,-0.48561736
9,1mvqe1Y3,Language (spoken),75,65,15,20,No to treatment,77,638.94,0.230769231,38,42,36,36,37,24,24,14,18,16,23,5,15,0,7,8,8,4,8,3,8,4,4,4,1,1,1,1,1,1,6,6,6,3,2,5,5,4,1,47,2,4,1,7,1,1,2,2,1,5,175000,Business Administration,18,Full time - business owner - construction services,2,0,0,9,27.06666667,-15.06666667,3.09E-05,0.737258642,1.518188397,1.003108741,-0.48561736
10,1mvqe1Y3,Language (spoken),75,45,30,25,No to treatment,77,748.075,0.666666667,38,42,36,36,37,24,24,14,18,16,23,5,15,0,7,8,8,4,8,3,8,4,4,4,1,1,1,1,1,1,6,6,6,3,2,5,5,4,1,47,2,4,1,7,1,1,2,2,1,5,175000,Business Administration,18,Full time - business owner - construction services,2,0,0,10,7.066666667,-0.066666667,3.09E-05,0.737258642,1.518188397,1.003108741,-0.48561736
11,1mvqe1Y3,Language (spoken),75,25,70,5,Yes to treatment,77,682.77,2.8,38,42,36,36,37,24,24,14,18,16,23,5,15,0,7,8,8,4,8,3,8,4,4,4,1,1,1,1,1,1,6,6,6,3,2,5,5,4,1,47,2,4,1,7,1,1,2,2,1,5,175000,Business Administration,18,Full time - business owner - construction services,2,0,0,11,-12.93333333,39.93333333,3.09E-05,0.737258642,1.518188397,1.003108741,-0.48561736
12,1mvqe1Y3,Language (spoken),75,50,20,30,No to treatment,90,619.045,0.4,38,42,36,36,37,24,24,14,18,16,23,5,15,0,7,8,8,4,8,3,8,4,4,4,1,1,1,1,1,1,6,6,6,3,2,5,5,4,1,47,2,4,1,7,1,1,2,2,1,5,175000,Business Administration,18,Full time - business owner - construction services,2,0,0,12,12.06666667,-10.06666667,3.09E-05,0.737258642,1.518188397,1.003108741,-0.48561736
13,1mvqe1Y3,Language (spoken),75,25,50,25,Yes to treatment,90,982.715,2,38,42,36,36,37,24,24,14,18,16,23,5,15,0,7,8,8,4,8,3,8,4,4,4,1,1,1,1,1,1,6,6,6,3,2,5,5,4,1,47,2,4,1,7,1,1,2,2,1,5,175000,Business Administration,18,Full time - business owner - construction services,2,0,0,13,-12.93333333,19.93333333,3.09E-05,0.737258642,1.518188397,1.003108741,-0.48561736
14,1mvqe1Y3,Language (spoken),75,35,30,35,No to treatment,90,550.265,0.857142857,38,42,36,36,37,24,24,14,18,16,23,5,15,0,7,8,8,4,8,3,8,4,4,4,1,1,1,1,1,1,6,6,6,3,2,5,5,4,1,47,2,4,1,7,1,1,2,2,1,5,175000,Business Administration,18,Full time - business owner - construction services,2,0,0,14,-2.933333333,-0.066666667,3.09E-05,0.737258642,1.518188397,1.003108741,-0.48561736
15,1mvqe1Y3,Language (spoken),75,70,20,10,No to treatment,90,614.805,0.285714286,38,42,36,36,37,24,24,14,18,16,23,5,15,0,7,8,8,4,8,3,8,4,4,4,1,1,1,1,1,1,6,6,6,3,2,5,5,4,1,47,2,4,1,7,1,1,2,2,1,5,175000,Business Administration,18,Full time - business owner - construction services,2,0,0,15,32.06666667,-10.06666667,3.09E-05,0.737258642,1.518188397,1.003108741,-0.48561736
16,1mvqe1Y3,Language (spoken),75,55,25,20,No to treatment,77,630.74,0.454545455,38,42,36,36,37,24,24,14,18,16,23,5,15,0,7,8,8,4,8,3,8,4,4,4,1,1,1,1,1,1,6,6,6,3,2,5,5,4,1,47,2,4,1,7,1,1,2,2,1,5,175000,Business Administration,18,Full time - business owner - construction services,2,0,0,16,17.06666667,-5.066666667,3.09E-05,0.737258642,1.518188397,1.003108741,-0.48561736
17,1mvqe1Y3,Language (spoken),75,15,65,20,Yes to treatment,77,790.585,4.333333333,38,42,36,36,37,24,24,14,18,16,23,5,15,0,7,8,8,4,8,3,8,4,4,4,1,1,1,1,1,1,6,6,6,3,2,5,5,4,1,47,2,4,1,7,1,1,2,2,1,5,175000,Business Administration,18,Full time - business owner - construction services,2,0,0,17,-22.93333333,34.93333333,3.09E-05,0.737258642,1.518188397,1.003108741,-0.48561736
18,1mvqe1Y3,Language (spoken),75,30,10,60,No to treatment,90,669.625,0.333333333,38,42,36,36,37,24,24,14,18,16,23,5,15,0,7,8,8,4,8,3,8,4,4,4,1,1,1,1,1,1,6,6,6,3,2,5,5,4,1,47,2,4,1,7,1,1,2,2,1,5,175000,Business Administration,18,Full time - business owner - construction services,2,0,0,18,-7.933333333,-20.06666667,3.09E-05,0.737258642,1.518188397,1.003108741,-0.48561736
19,1mvqe1Y3,Language (spoken),75,70,20,10,No to treatment,90,1696.355,0.285714286,38,42,36,36,37,24,24,14,18,16,23,5,15,0,7,8,8,4,8,3,8,4,4,4,1,1,1,1,1,1,6,6,6,3,2,5,5,4,1,47,2,4,1,7,1,1,2,2,1,5,175000,Business Administration,18,Full time - business owner - construction services,2,0,0,19,32.06666667,-10.06666667,3.09E-05,0.737258642,1.518188397,1.003108741,-0.48561736
20,1mvqe1Y3,Language (spoken),75,40,40,20,No to treatment,77,881.93,1,38,42,36,36,37,24,24,14,18,16,23,5,15,0,7,8,8,4,8,3,8,4,4,4,1,1,1,1,1,1,6,6,6,3,2,5,5,4,1,47,2,4,1,7,1,1,2,2,1,5,175000,Business Administration,18,Full time - business owner - construction services,2,0,0,20,2.066666667,9.933333333,3.09E-05,0.737258642,1.518188397,1.003108741,-0.48561736
21,1mvqe1Y3,Language (spoken),75,30,50,20,No to treatment,77,1361.82,1.666666667,38,42,36,36,37,24,24,14,18,16,23,5,15,0,7,8,8,4,8,3,8,4,4,4,1,1,1,1,1,1,6,6,6,3,2,5,5,4,1,47,2,4,1,7,1,1,2,2,1,5,175000,Business Administration,18,Full time - business owner - construction services,2,0,0,21,-7.933333333,19.93333333,3.09E-05,0.737258642,1.518188397,1.003108741,-0.48561736
22,1mvqe1Y3,Language (spoken),75,60,20,20,No to treatment,77,662.525,0.333333333,38,42,36,36,37,24,24,14,18,16,23,5,15,0,7,8,8,4,8,3,8,4,4,4,1,1,1,1,1,1,6,6,6,3,2,5,5,4,1,47,2,4,1,7,1,1,2,2,1,5,175000,Business Administration,18,Full time - business owner - construction services,2,0,0,22,22.06666667,-10.06666667,3.09E-05,0.737258642,1.518188397,1.003108741,-0.48561736
23,1mvqe1Y3,Language (spoken),75,15,50,35,Yes to treatment,77,1016.285,3.333333333,38,42,36,36,37,24,24,14,18,16,23,5,15,0,7,8,8,4,8,3,8,4,4,4,1,1,1,1,1,1,6,6,6,3,2,5,5,4,1,47,2,4,1,7,1,1,2,2,1,5,175000,Business Administration,18,Full time - business owner - construction services,2,0,0,23,-22.93333333,19.93333333,3.09E-05,0.737258642,1.518188397,1.003108741,-0.48561736
24,1mvqe1Y3,Language (spoken),75,30,25,45,No to treatment,90,606.3,0.833333333,38,42,36,36,37,24,24,14,18,16,23,5,15,0,7,8,8,4,8,3,8,4,4,4,1,1,1,1,1,1,6,6,6,3,2,5,5,4,1,47,2,4,1,7,1,1,2,2,1,5,175000,Business Administration,18,Full time - business owner - construction services,2,0,0,24,-7.933333333,-5.066666667,3.09E-05,0.737258642,1.518188397,1.003108741,-0.48561736
25,1mvqe1Y3,Language (spoken),75,40,40,20,No to treatment,77,948.675,1,38,42,36,36,37,24,24,14,18,16,23,5,15,0,7,8,8,4,8,3,8,4,4,4,1,1,1,1,1,1,6,6,6,3,2,5,5,4,1,47,2,4,1,7,1,1,2,2,1,5,175000,Business Administration,18,Full time - business owner - construction services,2,0,0,25,2.066666667,9.933333333,3.09E-05,0.737258642,1.518188397,1.003108741,-0.48561736
26,1mvqe1Y3,Language (spoken),75,45,5,50,No to treatment,77,4201.455,0.111111111,38,42,36,36,37,24,24,14,18,16,23,5,15,0,7,8,8,4,8,3,8,4,4,4,1,1,1,1,1,1,6,6,6,3,2,5,5,4,1,47,2,4,1,7,1,1,2,2,1,5,175000,Business Administration,18,Full time - business owner - construction services,2,0,0,26,7.066666667,-25.06666667,3.09E-05,0.737258642,1.518188397,1.003108741,-0.48561736
27,1mvqe1Y3,Language (spoken),75,10,30,60,No to treatment,90,532.045,3,38,42,36,36,37,24,24,14,18,16,23,5,15,0,7,8,8,4,8,3,8,4,4,4,1,1,1,1,1,1,6,6,6,3,2,5,5,4,1,47,2,4,1,7,1,1,2,2,1,5,175000,Business Administration,18,Full time - business owner - construction services,2,0,0,27,-27.93333333,-0.066666667,3.09E-05,0.737258642,1.518188397,1.003108741,-0.48561736
28,1mvqe1Y3,Language (spoken),75,5,5,90,No to treatment,90,778.275,1,38,42,36,36,37,24,24,14,18,16,23,5,15,0,7,8,8,4,8,3,8,4,4,4,1,1,1,1,1,1,6,6,6,3,2,5,5,4,1,47,2,4,1,7,1,1,2,2,1,5,175000,Business Administration,18,Full time - business owner - construction services,2,0,0,28,-32.93333333,-25.06666667,3.09E-05,0.737258642,1.518188397,1.003108741,-0.48561736
29,1mvqe1Y3,Language (spoken),75,55,25,20,No to treatment,77,659.26,0.454545455,38,42,36,36,37,24,24,14,18,16,23,5,15,0,7,8,8,4,8,3,8,4,4,4,1,1,1,1,1,1,6,6,6,3,2,5,5,4,1,47,2,4,1,7,1,1,2,2,1,5,175000,Business Administration,18,Full time - business owner - construction services,2,0,0,29,17.06666667,-5.066666667,3.09E-05,0.737258642,1.518188397,1.003108741,-0.48561736
30,1mvqe1Y3,Language (spoken),75,60,30,10,No to treatment,90,598.435,0.5,38,42,36,36,37,24,24,14,18,16,23,5,15,0,7,8,8,4,8,3,8,4,4,4,1,1,1,1,1,1,6,6,6,3,2,5,5,4,1,47,2,4,1,7,1,1,2,2,1,5,175000,Business Administration,18,Full time - business owner - construction services,2,0,0,30,22.06666667,-0.066666667,3.09E-05,0.737258642,1.518188397,1.003108741,-0.48561736
31,1mvqe1Y3,Language (spoken),75,45,15,40,No to treatment,90,577.775,0.333333333,38,42,36,36,37,24,24,14,18,16,23,5,15,0,7,8,8,4,8,3,8,4,4,4,1,1,1,1,1,1,6,6,6,3,2,5,5,4,1,47,2,4,1,7,1,1,2,2,1,5,175000,Business Administration,18,Full time - business owner - construction services,2,0,0,31,7.066666667,-15.06666667,3.09E-05,0.737258642,1.518188397,1.003108741,-0.48561736
32,1mvqe1Y3,Language (spoken),75,10,55,35,Yes to treatment,77,560.495,5.5,38,42,36,36,37,24,24,14,18,16,23,5,15,0,7,8,8,4,8,3,8,4,4,4,1,1,1,1,1,1,6,6,6,3,2,5,5,4,1,47,2,4,1,7,1,1,2,2,1,5,175000,Business Administration,18,Full time - business owner - construction services,2,0,0,32,-27.93333333,24.93333333,3.09E-05,0.737258642,1.518188397,1.003108741,-0.48561736
33,1mvqe1Y3,Language (spoken),75,5,90,5,Yes to treatment,90,910.515,18,38,42,36,36,37,24,24,14,18,16,23,5,15,0,7,8,8,4,8,3,8,4,4,4,1,1,1,1,1,1,6,6,6,3,2,5,5,4,1,47,2,4,1,7,1,1,2,2,1,5,175000,Business Administration,18,Full time - business owner - construction services,2,0,0,33,-32.93333333,59.93333333,3.09E-05,0.737258642,1.518188397,1.003108741,-0.48561736
34,1mvqe1Y3,Language (spoken),75,45,15,40,No to treatment,90,726.255,0.333333333,38,42,36,36,37,24,24,14,18,16,23,5,15,0,7,8,8,4,8,3,8,4,4,4,1,1,1,1,1,1,6,6,6,3,2,5,5,4,1,47,2,4,1,7,1,1,2,2,1,5,175000,Business Administration,18,Full time - business owner - construction services,2,0,0,34,7.066666667,-15.06666667,3.09E-05,0.737258642,1.518188397,1.003108741,-0.48561736
35,1mvqe1Y3,Language (spoken),75,15,35,50,No to treatment,90,535.63,2.333333333,38,42,36,36,37,24,24,14,18,16,23,5,15,0,7,8,8,4,8,3,8,4,4,4,1,1,1,1,1,1,6,6,6,3,2,5,5,4,1,47,2,4,1,7,1,1,2,2,1,5,175000,Business Administration,18,Full time - business owner - construction services,2,0,0,35,-22.93333333,4.933333333,3.09E-05,0.737258642,1.518188397,1.003108741,-0.48561736
36,1mvqe1Y3,Language (spoken),75,15,65,20,Yes to treatment,77,658.17,4.333333333,38,42,36,36,37,24,24,14,18,16,23,5,15,0,7,8,8,4,8,3,8,4,4,4,1,1,1,1,1,1,6,6,6,3,2,5,5,4,1,47,2,4,1,7,1,1,2,2,1,5,175000,Business Administration,18,Full time - business owner - construction services,2,0,0,36,-22.93333333,34.93333333,3.09E-05,0.737258642,1.518188397,1.003108741,-0.48561736
37,1mvqe1Y3,Language (spoken),75,60,25,15,No to treatment,90,815.11,0.416666667,38,42,36,36,37,24,24,14,18,16,23,5,15,0,7,8,8,4,8,3,8,4,4,4,1,1,1,1,1,1,6,6,6,3,2,5,5,4,1,47,2,4,1,7,1,1,2,2,1,5,175000,Business Administration,18,Full time - business owner - construction services,2,0,0,37,22.06666667,-5.066666667,3.09E-05,0.737258642,1.518188397,1.003108741,-0.48561736
38,1mvqe1Y3,Language (spoken),75,10,40,50,No to treatment,90,681.795,4,38,42,36,36,37,24,24,14,18,16,23,5,15,0,7,8,8,4,8,3,8,4,4,4,1,1,1,1,1,1,6,6,6,3,2,5,5,4,1,47,2,4,1,7,1,1,2,2,1,5,175000,Business Administration,18,Full time - business owner - construction services,2,0,0,38,-27.93333333,9.933333333,3.09E-05,0.737258642,1.518188397,1.003108741,-0.48561736
39,1mvqe1Y3,Language (spoken),75,60,30,10,No to treatment,90,889.575,0.5,38,42,36,36,37,24,24,14,18,16,23,5,15,0,7,8,8,4,8,3,8,4,4,4,1,1,1,1,1,1,6,6,6,3,2,5,5,4,1,47,2,4,1,7,1,1,2,2,1,5,175000,Business Administration,18,Full time - business owner - construction services,2,0,0,39,22.06666667,-0.066666667,3.09E-05,0.737258642,1.518188397,1.003108741,-0.48561736
40,1mvqe1Y3,Language (spoken),75,60,15,25,No to treatment,90,562.98,0.25,38,42,36,36,37,24,24,14,18,16,23,5,15,0,7,8,8,4,8,3,8,4,4,4,1,1,1,1,1,1,6,6,6,3,2,5,5,4,1,47,2,4,1,7,1,1,2,2,1,5,175000,Business Administration,18,Full time - business owner - construction services,2,0,0,40,22.06666667,-15.06666667,3.09E-05,0.737258642,1.518188397,1.003108741,-0.48561736
41,1mvqe1Y3,Language (spoken),75,50,30,20,No to treatment,77,1704.56,0.6,38,42,36,36,37,24,24,14,18,16,23,5,15,0,7,8,8,4,8,3,8,4,4,4,1,1,1,1,1,1,6,6,6,3,2,5,5,4,1,47,2,4,1,7,1,1,2,2,1,5,175000,Business Administration,18,Full time - business owner - construction services,2,0,0,41,12.06666667,-0.066666667,3.09E-05,0.737258642,1.518188397,1.003108741,-0.48561736
42,1mvqe1Y3,Language (spoken),75,70,25,5,No to treatment,90,662.09,0.357142857,38,42,36,36,37,24,24,14,18,16,23,5,15,0,7,8,8,4,8,3,8,4,4,4,1,1,1,1,1,1,6,6,6,3,2,5,5,4,1,47,2,4,1,7,1,1,2,2,1,5,175000,Business Administration,18,Full time - business owner - construction services,2,0,0,42,32.06666667,-5.066666667,3.09E-05,0.737258642,1.518188397,1.003108741,-0.48561736
43,1mvqe1Y3,Language (spoken),75,5,5,90,No to treatment,77,604.08,1,38,42,36,36,37,24,24,14,18,16,23,5,15,0,7,8,8,4,8,3,8,4,4,4,1,1,1,1,1,1,6,6,6,3,2,5,5,4,1,47,2,4,1,7,1,1,2,2,1,5,175000,Business Administration,18,Full time - business owner - construction services,2,0,0,43,-32.93333333,-25.06666667,3.09E-05,0.737258642,1.518188397,1.003108741,-0.48561736
44,1mvqe1Y3,Language (spoken),75,25,50,25,Yes to treatment,90,1174.335,2,38,42,36,36,37,24,24,14,18,16,23,5,15,0,7,8,8,4,8,3,8,4,4,4,1,1,1,1,1,1,6,6,6,3,2,5,5,4,1,47,2,4,1,7,1,1,2,2,1,5,175000,Business Administration,18,Full time - business owner - construction services,2,0,0,44,-12.93333333,19.93333333,3.09E-05,0.737258642,1.518188397,1.003108741,-0.48561736
45,1mvqe1Y3,Language (spoken),75,60,35,5,No to treatment,77,857.845,0.583333333,38,42,36,36,37,24,24,14,18,16,23,5,15,0,7,8,8,4,8,3,8,4,4,4,1,1,1,1,1,1,6,6,6,3,2,5,5,4,1,47,2,4,1,7,1,1,2,2,1,5,175000,Business Administration,18,Full time - business owner - construction services,2,0,0,45,22.06666667,4.933333333,3.09E-05,0.737258642,1.518188397,1.003108741,-0.48561736
46,1mvqe1Y3,Language (spoken),75,70,25,5,No to treatment,77,708,0.357142857,38,42,36,36,37,24,24,14,18,16,23,5,15,0,7,8,8,4,8,3,8,4,4,4,1,1,1,1,1,1,6,6,6,3,2,5,5,4,1,47,2,4,1,7,1,1,2,2,1,5,175000,Business Administration,18,Full time - business owner - construction services,2,0,0,46,32.06666667,-5.066666667,3.09E-05,0.737258642,1.518188397,1.003108741,-0.48561736
47,1mvqe1Y3,Language (spoken),75,50,10,40,No to treatment,90,790.67,0.2,38,42,36,36,37,24,24,14,18,16,23,5,15,0,7,8,8,4,8,3,8,4,4,4,1,1,1,1,1,1,6,6,6,3,2,5,5,4,1,47,2,4,1,7,1,1,2,2,1,5,175000,Business Administration,18,Full time - business owner - construction services,2,0,0,47,12.06666667,-20.06666667,3.09E-05,0.737258642,1.518188397,1.003108741,-0.48561736
48,1mvqe1Y3,Language (spoken),75,10,50,40,Yes to treatment,77,748.225,5,38,42,36,36,37,24,24,14,18,16,23,5,15,0,7,8,8,4,8,3,8,4,4,4,1,1,1,1,1,1,6,6,6,3,2,5,5,4,1,47,2,4,1,7,1,1,2,2,1,5,175000,Business Administration,18,Full time - business owner - construction services,2,0,0,48,-27.93333333,19.93333333,3.09E-05,0.737258642,1.518188397,1.003108741,-0.48561736
49,1mvqe1Y3,Language (spoken),75,20,70,10,Yes to treatment,90,1073.315,3.5,38,42,36,36,37,24,24,14,18,16,23,5,15,0,7,8,8,4,8,3,8,4,4,4,1,1,1,1,1,1,6,6,6,3,2,5,5,4,1,47,2,4,1,7,1,1,2,2,1,5,175000,Business Administration,18,Full time - business owner - construction services,2,0,0,49,-17.93333333,39.93333333,3.09E-05,0.737258642,1.518188397,1.003108741,-0.48561736
50,1mvqe1Y3,Language (spoken),75,5,10,85,No to treatment,77,668.585,2,38,42,36,36,37,24,24,14,18,16,23,5,15,0,7,8,8,4,8,3,8,4,4,4,1,1,1,1,1,1,6,6,6,3,2,5,5,4,1,47,2,4,1,7,1,1,2,2,1,5,175000,Business Administration,18,Full time - business owner - construction services,2,0,0,50,-32.93333333,-20.06666667,3.09E-05,0.737258642,1.518188397,1.003108741,-0.48561736
51,1mvqe1Y3,Language (spoken),75,25,25,50,No to treatment,90,662.11,1,38,42,36,36,37,24,24,14,18,16,23,5,15,0,7,8,8,4,8,3,8,4,4,4,1,1,1,1,1,1,6,6,6,3,2,5,5,4,1,47,2,4,1,7,1,1,2,2,1,5,175000,Business Administration,18,Full time - business owner - construction services,2,0,0,51,-12.93333333,-5.066666667,3.09E-05,0.737258642,1.518188397,1.003108741,-0.48561736
52,1mvqe1Y3,Language (spoken),75,55,20,25,No to treatment,90,876.74,0.363636364,38,42,36,36,37,24,24,14,18,16,23,5,15,0,7,8,8,4,8,3,8,4,4,4,1,1,1,1,1,1,6,6,6,3,2,5,5,4,1,47,2,4,1,7,1,1,2,2,1,5,175000,Business Administration,18,Full time - business owner - construction services,2,0,0,52,17.06666667,-10.06666667,3.09E-05,0.737258642,1.518188397,1.003108741,-0.48561736
53,1mvqe1Y3,Language (spoken),75,50,15,35,No to treatment,77,589.225,0.3,38,42,36,36,37,24,24,14,18,16,23,5,15,0,7,8,8,4,8,3,8,4,4,4,1,1,1,1,1,1,6,6,6,3,2,5,5,4,1,47,2,4,1,7,1,1,2,2,1,5,175000,Business Administration,18,Full time - business owner - construction services,2,0,0,53,12.06666667,-15.06666667,3.09E-05,0.737258642,1.518188397,1.003108741,-0.48561736
54,1mvqe1Y3,Language (spoken),75,20,50,30,Yes to treatment,90,1056.155,2.5,38,42,36,36,37,24,24,14,18,16,23,5,15,0,7,8,8,4,8,3,8,4,4,4,1,1,1,1,1,1,6,6,6,3,2,5,5,4,1,47,2,4,1,7,1,1,2,2,1,5,175000,Business Administration,18,Full time - business owner - construction services,2,0,0,54,-17.93333333,19.93333333,3.09E-05,0.737258642,1.518188397,1.003108741,-0.48561736
55,1mvqe1Y3,Language (spoken),75,60,15,25,No to treatment,77,861.6,0.25,38,42,36,36,37,24,24,14,18,16,23,5,15,0,7,8,8,4,8,3,8,4,4,4,1,1,1,1,1,1,6,6,6,3,2,5,5,4,1,47,2,4,1,7,1,1,2,2,1,5,175000,Business Administration,18,Full time - business owner - construction services,2,0,0,55,22.06666667,-15.06666667,3.09E-05,0.737258642,1.518188397,1.003108741,-0.48561736
56,1mvqe1Y3,Language (spoken),75,65,5,30,No to treatment,90,834.82,0.076923077,38,42,36,36,37,24,24,14,18,16,23,5,15,0,7,8,8,4,8,3,8,4,4,4,1,1,1,1,1,1,6,6,6,3,2,5,5,4,1,47,2,4,1,7,1,1,2,2,1,5,175000,Business Administration,18,Full time - business owner - construction services,2,0,0,56,27.06666667,-25.06666667,3.09E-05,0.737258642,1.518188397,1.003108741,-0.48561736
57,1mvqe1Y3,Language (spoken),75,50,10,40,No to treatment,77,690.205,0.2,38,42,36,36,37,24,24,14,18,16,23,5,15,0,7,8,8,4,8,3,8,4,4,4,1,1,1,1,1,1,6,6,6,3,2,5,5,4,1,47,2,4,1,7,1,1,2,2,1,5,175000,Business Administration,18,Full time - business owner - construction services,2,0,0,57,12.06666667,-20.06666667,3.09E-05,0.737258642,1.518188397,1.003108741,-0.48561736
58,1mvqe1Y3,Language (spoken),75,25,55,20,Yes to treatment,77,1674.54,2.2,38,42,36,36,37,24,24,14,18,16,23,5,15,0,7,8,8,4,8,3,8,4,4,4,1,1,1,1,1,1,6,6,6,3,2,5,5,4,1,47,2,4,1,7,1,1,2,2,1,5,175000,Business Administration,18,Full time - business owner - construction services,2,0,0,58,-12.93333333,24.93333333,3.09E-05,0.737258642,1.518188397,1.003108741,-0.48561736
59,1mvqe1Y3,Language (spoken),75,45,50,5,No to treatment,77,1333.525,1.111111111,38,42,36,36,37,24,24,14,18,16,23,5,15,0,7,8,8,4,8,3,8,4,4,4,1,1,1,1,1,1,6,6,6,3,2,5,5,4,1,47,2,4,1,7,1,1,2,2,1,5,175000,Business Administration,18,Full time - business owner - construction services,2,0,0,59,7.066666667,19.93333333,3.09E-05,0.737258642,1.518188397,1.003108741,-0.48561736
60,1mvqe1Y3,Language (spoken),75,5,55,40,Yes to treatment,90,746.46,11,38,42,36,36,37,24,24,14,18,16,23,5,15,0,7,8,8,4,8,3,8,4,4,4,1,1,1,1,1,1,6,6,6,3,2,5,5,4,1,47,2,4,1,7,1,1,2,2,1,5,175000,Business Administration,18,Full time - business owner - construction services,2,0,0,60,-32.93333333,24.93333333,3.09E-05,0.737258642,1.518188397,1.003108741,-0.48561736
61,1mvqe1Y3,Language (spoken),75,10,45,45,Yes to treatment,77,1917.17,4.5,38,42,36,36,37,24,24,14,18,16,23,5,15,0,7,8,8,4,8,3,8,4,4,4,1,1,1,1,1,1,6,6,6,3,2,5,5,4,1,47,2,4,1,7,1,1,2,2,1,5,175000,Business Administration,18,Full time - business owner - construction services,2,0,0,61,-27.93333333,14.93333333,3.09E-05,0.737258642,1.518188397,1.003108741,-0.48561736
62,1mvqe1Y3,Language (spoken),75,20,55,25,Yes to treatment,90,1062.6,2.75,38,42,36,36,37,24,24,14,18,16,23,5,15,0,7,8,8,4,8,3,8,4,4,4,1,1,1,1,1,1,6,6,6,3,2,5,5,4,1,47,2,4,1,7,1,1,2,2,1,5,175000,Business Administration,18,Full time - business owner - construction services,2,0,0,62,-17.93333333,24.93333333,3.09E-05,0.737258642,1.518188397,1.003108741,-0.48561736
63,1mvqe1Y3,Language (spoken),75,10,25,65,No to treatment,77,2948.075,2.5,38,42,36,36,37,24,24,14,18,16,23,5,15,0,7,8,8,4,8,3,8,4,4,4,1,1,1,1,1,1,6,6,6,3,2,5,5,4,1,47,2,4,1,7,1,1,2,2,1,5,175000,Business Administration,18,Full time - business owner - construction services,2,0,0,63,-27.93333333,-5.066666667,3.09E-05,0.737258642,1.518188397,1.003108741,-0.48561736
64,1mvqe1Y3,Language (spoken),75,20,15,65,No to treatment,77,917.91,0.75,38,42,36,36,37,24,24,14,18,16,23,5,15,0,7,8,8,4,8,3,8,4,4,4,1,1,1,1,1,1,6,6,6,3,2,5,5,4,1,47,2,4,1,7,1,1,2,2,1,5,175000,Business Administration,18,Full time - business owner - construction services,2,0,0,64,-17.93333333,-15.06666667,3.09E-05,0.737258642,1.518188397,1.003108741,-0.48561736
65,1mvqe1Y3,Language (spoken),75,50,20,30,No to treatment,90,533.855,0.4,38,42,36,36,37,24,24,14,18,16,23,5,15,0,7,8,8,4,8,3,8,4,4,4,1,1,1,1,1,1,6,6,6,3,2,5,5,4,1,47,2,4,1,7,1,1,2,2,1,5,175000,Business Administration,18,Full time - business owner - construction services,2,0,0,65,12.06666667,-10.06666667,3.09E-05,0.737258642,1.518188397,1.003108741,-0.48561736
66,1mvqe1Y3,Language (spoken),75,35,20,45,No to treatment,77,631.18,0.571428571,38,42,36,36,37,24,24,14,18,16,23,5,15,0,7,8,8,4,8,3,8,4,4,4,1,1,1,1,1,1,6,6,6,3,2,5,5,4,1,47,2,4,1,7,1,1,2,2,1,5,175000,Business Administration,18,Full time - business owner - construction services,2,0,0,66,-2.933333333,-10.06666667,3.09E-05,0.737258642,1.518188397,1.003108741,-0.48561736
67,1mvqe1Y3,Language (spoken),75,50,30,20,No to treatment,90,661.415,0.6,38,42,36,36,37,24,24,14,18,16,23,5,15,0,7,8,8,4,8,3,8,4,4,4,1,1,1,1,1,1,6,6,6,3,2,5,5,4,1,47,2,4,1,7,1,1,2,2,1,5,175000,Business Administration,18,Full time - business owner - construction services,2,0,0,67,12.06666667,-0.066666667,3.09E-05,0.737258642,1.518188397,1.003108741,-0.48561736
68,1mvqe1Y3,Language (spoken),75,55,30,15,No to treatment,90,536.74,0.545454545,38,42,36,36,37,24,24,14,18,16,23,5,15,0,7,8,8,4,8,3,8,4,4,4,1,1,1,1,1,1,6,6,6,3,2,5,5,4,1,47,2,4,1,7,1,1,2,2,1,5,175000,Business Administration,18,Full time - business owner - construction services,2,0,0,68,17.06666667,-0.066666667,3.09E-05,0.737258642,1.518188397,1.003108741,-0.48561736
69,1mvqe1Y3,Language (spoken),75,65,25,10,No to treatment,77,969.215,0.384615385,38,42,36,36,37,24,24,14,18,16,23,5,15,0,7,8,8,4,8,3,8,4,4,4,1,1,1,1,1,1,6,6,6,3,2,5,5,4,1,47,2,4,1,7,1,1,2,2,1,5,175000,Business Administration,18,Full time - business owner - construction services,2,0,0,69,27.06666667,-5.066666667,3.09E-05,0.737258642,1.518188397,1.003108741,-0.48561736
70,1mvqe1Y3,Language (spoken),75,20,25,55,No to treatment,90,897.97,1.25,38,42,36,36,37,24,24,14,18,16,23,5,15,0,7,8,8,4,8,3,8,4,4,4,1,1,1,1,1,1,6,6,6,3,2,5,5,4,1,47,2,4,1,7,1,1,2,2,1,5,175000,Business Administration,18,Full time - business owner - construction services,2,0,0,70,-17.93333333,-5.066666667,3.09E-05,0.737258642,1.518188397,1.003108741,-0.48561736
71,1mvqe1Y3,Language (spoken),75,65,5,30,No to treatment,90,730.765,0.076923077,38,42,36,36,37,24,24,14,18,16,23,5,15,0,7,8,8,4,8,3,8,4,4,4,1,1,1,1,1,1,6,6,6,3,2,5,5,4,1,47,2,4,1,7,1,1,2,2,1,5,175000,Business Administration,18,Full time - business owner - construction services,2,0,0,71,27.06666667,-25.06666667,3.09E-05,0.737258642,1.518188397,1.003108741,-0.48561736
72,1mvqe1Y3,Language (spoken),75,45,35,20,No to treatment,77,1247.57,0.777777778,38,42,36,36,37,24,24,14,18,16,23,5,15,0,7,8,8,4,8,3,8,4,4,4,1,1,1,1,1,1,6,6,6,3,2,5,5,4,1,47,2,4,1,7,1,1,2,2,1,5,175000,Business Administration,18,Full time - business owner - construction services,2,0,0,72,7.066666667,4.933333333,3.09E-05,0.737258642,1.518188397,1.003108741,-0.48561736
73,1mvqe1Y3,Language (spoken),75,60,35,5,No to treatment,90,891.945,0.583333333,38,42,36,36,37,24,24,14,18,16,23,5,15,0,7,8,8,4,8,3,8,4,4,4,1,1,1,1,1,1,6,6,6,3,2,5,5,4,1,47,2,4,1,7,1,1,2,2,1,5,175000,Business Administration,18,Full time - business owner - construction services,2,0,0,73,22.06666667,4.933333333,3.09E-05,0.737258642,1.518188397,1.003108741,-0.48561736
74,1mvqe1Y3,Language (spoken),75,5,40,55,Yes to treatment,77,1455.9,8,38,42,36,36,37,24,24,14,18,16,23,5,15,0,7,8,8,4,8,3,8,4,4,4,1,1,1,1,1,1,6,6,6,3,2,5,5,4,1,47,2,4,1,7,1,1,2,2,1,5,175000,Business Administration,18,Full time - business owner - construction services,2,0,0,74,-32.93333333,9.933333333,3.09E-05,0.737258642,1.518188397,1.003108741,-0.48561736
75,1mvqe1Y3,Language (spoken),75,70,15,15,No to treatment,77,805.775,0.214285714,38,42,36,36,37,24,24,14,18,16,23,5,15,0,7,8,8,4,8,3,8,4,4,4,1,1,1,1,1,1,6,6,6,3,2,5,5,4,1,47,2,4,1,7,1,1,2,2,1,5,175000,Business Administration,18,Full time - business owner - construction services,2,0,0,75,32.06666667,-15.06666667,3.09E-05,0.737258642,1.518188397,1.003108741,-0.48561736
76,2n0R4z0W,Motor Function,75,30,60,10,Yes to treatment,90,2190.43,2,40,38,43,38,32,19,23,17,23,19,6,20,24,24,0,4,2,6,4,8,8,8,8,8,2,1,1,1,2,2,5.5,5.25,5.75,1,1,1,7,1,2,45,2,3,1,1,3,3,4,6,1,3,120000,Applied Behavioral Science,16,homemaker full time parent,2,1,0,1,-8.8,29.86666667,2.036925112,1.026936313,1.03610048,1.000953261,-0.991155137
77,2n0R4z0W,Motor Function,75,45,25,30,Yes to treatment,90,2904.65,0.555555556,40,38,43,38,32,19,23,17,23,19,6,20,24,24,0,4,2,6,4,8,8,8,8,8,2,1,1,1,2,2,5.5,5.25,5.75,1,1,1,7,1,2,45,2,3,1,1,3,3,4,6,1,3,120000,Applied Behavioral Science,16,homemaker full time parent,2,1,0,2,6.2,-5.133333333,2.036925112,1.026936313,1.03610048,1.000953261,-0.991155137
78,2n0R4z0W,Motor Function,75,45,50,5,Yes to treatment,90,4983.735,1.111111111,40,38,43,38,32,19,23,17,23,19,6,20,24,24,0,4,2,6,4,8,8,8,8,8,2,1,1,1,2,2,5.5,5.25,5.75,1,1,1,7,1,2,45,2,3,1,1,3,3,4,6,1,3,120000,Applied Behavioral Science,16,homemaker full time parent,2,1,0,3,6.2,19.86666667,2.036925112,1.026936313,1.03610048,1.000953261,-0.991155137
79,2n0R4z0W,Motor Function,75,35,20,45,Yes to treatment,90,18166.305,0.571428571,40,38,43,38,32,19,23,17,23,19,6,20,24,24,0,4,2,6,4,8,8,8,8,8,2,1,1,1,2,2,5.5,5.25,5.75,1,1,1,7,1,2,45,2,3,1,1,3,3,4,6,1,3,120000,Applied Behavioral Science,16,homemaker full time parent,2,1,0,4,-3.8,-10.13333333,2.036925112,1.026936313,1.03610048,1.000953261,-0.991155137
80,2n0R4z0W,Motor Function,75,40,40,20,No to treatment,77,5310.515,1,40,38,43,38,32,19,23,17,23,19,6,20,24,24,0,4,2,6,4,8,8,8,8,8,2,1,1,1,2,2,5.5,5.25,5.75,1,1,1,7,1,2,45,2,3,1,1,3,3,4,6,1,3,120000,Applied Behavioral Science,16,homemaker full time parent,2,1,0,5,1.2,9.866666667,2.036925112,1.026936313,1.03610048,1.000953261,-0.991155137
81,2n0R4z0W,Motor Function,75,35,30,35,Yes to treatment,77,1734.415,0.857142857,40,38,43,38,32,19,23,17,23,19,6,20,24,24,0,4,2,6,4,8,8,8,8,8,2,1,1,1,2,2,5.5,5.25,5.75,1,1,1,7,1,2,45,2,3,1,1,3,3,4,6,1,3,120000,Applied Behavioral Science,16,homemaker full time parent,2,1,0,6,-3.8,-0.133333333,2.036925112,1.026936313,1.03610048,1.000953261,-0.991155137
82,2n0R4z0W,Motor Function,75,50,10,40,Yes to treatment,90,1853.31,0.2,40,38,43,38,32,19,23,17,23,19,6,20,24,24,0,4,2,6,4,8,8,8,8,8,2,1,1,1,2,2,5.5,5.25,5.75,1,1,1,7,1,2,45,2,3,1,1,3,3,4,6,1,3,120000,Applied Behavioral Science,16,homemaker full time parent,2,1,0,7,11.2,-20.13333333,2.036925112,1.026936313,1.03610048,1.000953261,-0.991155137
83,2n0R4z0W,Motor Function,75,45,35,20,No to treatment,77,12003.145,0.777777778,40,38,43,38,32,19,23,17,23,19,6,20,24,24,0,4,2,6,4,8,8,8,8,8,2,1,1,1,2,2,5.5,5.25,5.75,1,1,1,7,1,2,45,2,3,1,1,3,3,4,6,1,3,120000,Applied Behavioral Science,16,homemaker full time parent,2,1,0,8,6.2,4.866666667,2.036925112,1.026936313,1.03610048,1.000953261,-0.991155137
84,2n0R4z0W,Motor Function,75,10,10,80,Yes to treatment,77,1415.195,1,40,38,43,38,32,19,23,17,23,19,6,20,24,24,0,4,2,6,4,8,8,8,8,8,2,1,1,1,2,2,5.5,5.25,5.75,1,1,1,7,1,2,45,2,3,1,1,3,3,4,6,1,3,120000,Applied Behavioral Science,16,homemaker full time parent,2,1,0,9,-28.8,-20.13333333,2.036925112,1.026936313,1.03610048,1.000953261,-0.991155137
85,2n0R4z0W,Motor Function,75,50,45,5,Yes to treatment,77,1175.19,0.9,40,38,43,38,32,19,23,17,23,19,6,20,24,24,0,4,2,6,4,8,8,8,8,8,2,1,1,1,2,2,5.5,5.25,5.75,1,1,1,7,1,2,45,2,3,1,1,3,3,4,6,1,3,120000,Applied Behavioral Science,16,homemaker full time parent,2,1,0,10,11.2,14.86666667,2.036925112,1.026936313,1.03610048,1.000953261,-0.991155137
86,2n0R4z0W,Motor Function,75,30,5,65,No to treatment,77,7687.335,0.166666667,40,38,43,38,32,19,23,17,23,19,6,20,24,24,0,4,2,6,4,8,8,8,8,8,2,1,1,1,2,2,5.5,5.25,5.75,1,1,1,7,1,2,45,2,3,1,1,3,3,4,6,1,3,120000,Applied Behavioral Science,16,homemaker full time parent,2,1,0,11,-8.8,-25.13333333,2.036925112,1.026936313,1.03610048,1.000953261,-0.991155137
87,2n0R4z0W,Motor Function,75,55,20,25,Yes to treatment,90,16775.465,0.363636364,40,38,43,38,32,19,23,17,23,19,6,20,24,24,0,4,2,6,4,8,8,8,8,8,2,1,1,1,2,2,5.5,5.25,5.75,1,1,1,7,1,2,45,2,3,1,1,3,3,4,6,1,3,120000,Applied Behavioral Science,16,homemaker full time parent,2,1,0,12,16.2,-10.13333333,2.036925112,1.026936313,1.03610048,1.000953261,-0.991155137
88,2n0R4z0W,Motor Function,75,70,20,10,No to treatment,90,4257.015,0.285714286,40,38,43,38,32,19,23,17,23,19,6,20,24,24,0,4,2,6,4,8,8,8,8,8,2,1,1,1,2,2,5.5,5.25,5.75,1,1,1,7,1,2,45,2,3,1,1,3,3,4,6,1,3,120000,Applied Behavioral Science,16,homemaker full time parent,2,1,0,13,31.2,-10.13333333,2.036925112,1.026936313,1.03610048,1.000953261,-0.991155137
89,2n0R4z0W,Motor Function,75,55,20,25,No to treatment,90,6878.79,0.363636364,40,38,43,38,32,19,23,17,23,19,6,20,24,24,0,4,2,6,4,8,8,8,8,8,2,1,1,1,2,2,5.5,5.25,5.75,1,1,1,7,1,2,45,2,3,1,1,3,3,4,6,1,3,120000,Applied Behavioral Science,16,homemaker full time parent,2,1,0,14,16.2,-10.13333333,2.036925112,1.026936313,1.03610048,1.000953261,-0.991155137
90,2n0R4z0W,Motor Function,75,35,55,10,Yes to treatment,77,3223.415,1.571428571,40,38,43,38,32,19,23,17,23,19,6,20,24,24,0,4,2,6,4,8,8,8,8,8,2,1,1,1,2,2,5.5,5.25,5.75,1,1,1,7,1,2,45,2,3,1,1,3,3,4,6,1,3,120000,Applied Behavioral Science,16,homemaker full time parent,2,1,0,15,-3.8,24.86666667,2.036925112,1.026936313,1.03610048,1.000953261,-0.991155137
91,2n0R4z0W,Motor Function,75,45,40,15,No to treatment,77,6150.51,0.888888889,40,38,43,38,32,19,23,17,23,19,6,20,24,24,0,4,2,6,4,8,8,8,8,8,2,1,1,1,2,2,5.5,5.25,5.75,1,1,1,7,1,2,45,2,3,1,1,3,3,4,6,1,3,120000,Applied Behavioral Science,16,homemaker full time parent,2,1,0,16,6.2,9.866666667,2.036925112,1.026936313,1.03610048,1.000953261,-0.991155137
92,2n0R4z0W,Motor Function,75,40,50,10,Yes to treatment,90,926.375,1.25,40,38,43,38,32,19,23,17,23,19,6,20,24,24,0,4,2,6,4,8,8,8,8,8,2,1,1,1,2,2,5.5,5.25,5.75,1,1,1,7,1,2,45,2,3,1,1,3,3,4,6,1,3,120000,Applied Behavioral Science,16,homemaker full time parent,2,1,0,17,1.2,19.86666667,2.036925112,1.026936313,1.03610048,1.000953261,-0.991155137
93,2n0R4z0W,Motor Function,75,50,15,35,No to treatment,90,4854.915,0.3,40,38,43,38,32,19,23,17,23,19,6,20,24,24,0,4,2,6,4,8,8,8,8,8,2,1,1,1,2,2,5.5,5.25,5.75,1,1,1,7,1,2,45,2,3,1,1,3,3,4,6,1,3,120000,Applied Behavioral Science,16,homemaker full time parent,2,1,0,18,11.2,-15.13333333,2.036925112,1.026936313,1.03610048,1.000953261,-0.991155137
94,2n0R4z0W,Motor Function,75,65,5,30,No to treatment,90,8151.4,0.076923077,40,38,43,38,32,19,23,17,23,19,6,20,24,24,0,4,2,6,4,8,8,8,8,8,2,1,1,1,2,2,5.5,5.25,5.75,1,1,1,7,1,2,45,2,3,1,1,3,3,4,6,1,3,120000,Applied Behavioral Science,16,homemaker full time parent,2,1,0,19,26.2,-25.13333333,2.036925112,1.026936313,1.03610048,1.000953261,-0.991155137
95,2n0R4z0W,Motor Function,75,10,75,15,Yes to treatment,77,1960.305,7.5,40,38,43,38,32,19,23,17,23,19,6,20,24,24,0,4,2,6,4,8,8,8,8,8,2,1,1,1,2,2,5.5,5.25,5.75,1,1,1,7,1,2,45,2,3,1,1,3,3,4,6,1,3,120000,Applied Behavioral Science,16,homemaker full time parent,2,1,0,20,-28.8,44.86666667,2.036925112,1.026936313,1.03610048,1.000953261,-0.991155137
96,2n0R4z0W,Motor Function,75,35,55,10,Yes to treatment,90,18558.66,1.571428571,40,38,43,38,32,19,23,17,23,19,6,20,24,24,0,4,2,6,4,8,8,8,8,8,2,1,1,1,2,2,5.5,5.25,5.75,1,1,1,7,1,2,45,2,3,1,1,3,3,4,6,1,3,120000,Applied Behavioral Science,16,homemaker full time parent,2,1,0,21,-3.8,24.86666667,2.036925112,1.026936313,1.03610048,1.000953261,-0.991155137
97,2n0R4z0W,Motor Function,75,55,15,30,No to treatment,90,10485.64,0.272727273,40,38,43,38,32,19,23,17,23,19,6,20,24,24,0,4,2,6,4,8,8,8,8,8,2,1,1,1,2,2,5.5,5.25,5.75,1,1,1,7,1,2,45,2,3,1,1,3,3,4,6,1,3,120000,Applied Behavioral Science,16,homemaker full time parent,2,1,0,22,16.2,-15.13333333,2.036925112,1.026936313,1.03610048,1.000953261,-0.991155137
98,2n0R4z0W,Motor Function,75,35,15,50,Yes to treatment,90,3783.24,0.428571429,40,38,43,38,32,19,23,17,23,19,6,20,24,24,0,4,2,6,4,8,8,8,8,8,2,1,1,1,2,2,5.5,5.25,5.75,1,1,1,7,1,2,45,2,3,1,1,3,3,4,6,1,3,120000,Applied Behavioral Science,16,homemaker full time parent,2,1,0,23,-3.8,-15.13333333,2.036925112,1.026936313,1.03610048,1.000953261,-0.991155137
99,2n0R4z0W,Motor Function,75,35,10,55,No to treatment,90,5487.36,0.285714286,40,38,43,38,32,19,23,17,23,19,6,20,24,24,0,4,2,6,4,8,8,8,8,8,2,1,1,1,2,2,5.5,5.25,5.75,1,1,1,7,1,2,45,2,3,1,1,3,3,4,6,1,3,120000,Applied Behavioral Science,16,homemaker full time parent,2,1,0,24,-3.8,-20.13333333,2.036925112,1.026936313,1.03610048,1.000953261,-0.991155137
100,2n0R4z0W,Motor Function,75,65,15,20,Yes to treatment,90,1392.755,0.230769231,40,38,43,38,32,19,23,17,23,19,6,20,24,24,0,4,2,6,4,8,8,8,8,8,2,1,1,1,2,2,5.5,5.25,5.75,1,1,1,7,1,2,45,2,3,1,1,3,3,4,6,1,3,120000,Applied Behavioral Science,16,homemaker full time parent,2,1,0,25,26.2,-15.13333333,2.036925112,1.026936313,1.03610048,1.000953261,-0.991155137
101,2n0R4z0W,Motor Function,75,5,65,30,Yes to treatment,77,1935.495,13,40,38,43,38,32,19,23,17,23,19,6,20,24,24,0,4,2,6,4,8,8,8,8,8,2,1,1,1,2,2,5.5,5.25,5.75,1,1,1,7,1,2,45,2,3,1,1,3,3,4,6,1,3,120000,Applied Behavioral Science,16,homemaker full time parent,2,1,0,26,-33.8,34.86666667,2.036925112,1.026936313,1.03610048,1.000953261,-0.991155137
102,2n0R4z0W,Motor Function,75,65,10,25,Yes to treatment,77,830.505,0.153846154,40,38,43,38,32,19,23,17,23,19,6,20,24,24,0,4,2,6,4,8,8,8,8,8,2,1,1,1,2,2,5.5,5.25,5.75,1,1,1,7,1,2,45,2,3,1,1,3,3,4,6,1,3,120000,Applied Behavioral Science,16,homemaker full time parent,2,1,0,27,26.2,-20.13333333,2.036925112,1.026936313,1.03610048,1.000953261,-0.991155137
103,2n0R4z0W,Motor Function,75,35,45,20,No to treatment,77,4616.445,1.285714286,40,38,43,38,32,19,23,17,23,19,6,20,24,24,0,4,2,6,4,8,8,8,8,8,2,1,1,1,2,2,5.5,5.25,5.75,1,1,1,7,1,2,45,2,3,1,1,3,3,4,6,1,3,120000,Applied Behavioral Science,16,homemaker full time parent,2,1,0,28,-3.8,14.86666667,2.036925112,1.026936313,1.03610048,1.000953261,-0.991155137
104,2n0R4z0W,Motor Function,75,65,10,25,Yes to treatment,77,2694,0.153846154,40,38,43,38,32,19,23,17,23,19,6,20,24,24,0,4,2,6,4,8,8,8,8,8,2,1,1,1,2,2,5.5,5.25,5.75,1,1,1,7,1,2,45,2,3,1,1,3,3,4,6,1,3,120000,Applied Behavioral Science,16,homemaker full time parent,2,1,0,29,26.2,-20.13333333,2.036925112,1.026936313,1.03610048,1.000953261,-0.991155137
105,2n0R4z0W,Motor Function,75,25,15,60,No to treatment,77,1837.725,0.6,40,38,43,38,32,19,23,17,23,19,6,20,24,24,0,4,2,6,4,8,8,8,8,8,2,1,1,1,2,2,5.5,5.25,5.75,1,1,1,7,1,2,45,2,3,1,1,3,3,4,6,1,3,120000,Applied Behavioral Science,16,homemaker full time parent,2,1,0,30,-13.8,-15.13333333,2.036925112,1.026936313,1.03610048,1.000953261,-0.991155137
106,2n0R4z0W,Motor Function,75,20,40,40,Yes to treatment,77,2680.235,2,40,38,43,38,32,19,23,17,23,19,6,20,24,24,0,4,2,6,4,8,8,8,8,8,2,1,1,1,2,2,5.5,5.25,5.75,1,1,1,7,1,2,45,2,3,1,1,3,3,4,6,1,3,120000,Applied Behavioral Science,16,homemaker full time parent,2,1,0,31,-18.8,9.866666667,2.036925112,1.026936313,1.03610048,1.000953261,-0.991155137
107,2n0R4z0W,Motor Function,75,30,30,40,Yes to treatment,90,1310.475,1,40,38,43,38,32,19,23,17,23,19,6,20,24,24,0,4,2,6,4,8,8,8,8,8,2,1,1,1,2,2,5.5,5.25,5.75,1,1,1,7,1,2,45,2,3,1,1,3,3,4,6,1,3,120000,Applied Behavioral Science,16,homemaker full time parent,2,1,0,32,-8.8,-0.133333333,2.036925112,1.026936313,1.03610048,1.000953261,-0.991155137
108,2n0R4z0W,Motor Function,75,45,30,25,Yes to treatment,77,1311.505,0.666666667,40,38,43,38,32,19,23,17,23,19,6,20,24,24,0,4,2,6,4,8,8,8,8,8,2,1,1,1,2,2,5.5,5.25,5.75,1,1,1,7,1,2,45,2,3,1,1,3,3,4,6,1,3,120000,Applied Behavioral Science,16,homemaker full time parent,2,1,0,33,6.2,-0.133333333,2.036925112,1.026936313,1.03610048,1.000953261,-0.991155137
109,2n0R4z0W,Motor Function,75,10,30,60,No to treatment,90,2102.495,3,40,38,43,38,32,19,23,17,23,19,6,20,24,24,0,4,2,6,4,8,8,8,8,8,2,1,1,1,2,2,5.5,5.25,5.75,1,1,1,7,1,2,45,2,3,1,1,3,3,4,6,1,3,120000,Applied Behavioral Science,16,homemaker full time parent,2,1,0,34,-28.8,-0.133333333,2.036925112,1.026936313,1.03610048,1.000953261,-0.991155137
110,2n0R4z0W,Motor Function,75,50,30,20,Yes to treatment,90,4638.71,0.6,40,38,43,38,32,19,23,17,23,19,6,20,24,24,0,4,2,6,4,8,8,8,8,8,2,1,1,1,2,2,5.5,5.25,5.75,1,1,1,7,1,2,45,2,3,1,1,3,3,4,6,1,3,120000,Applied Behavioral Science,16,homemaker full time parent,2,1,0,35,11.2,-0.133333333,2.036925112,1.026936313,1.03610048,1.000953261,-0.991155137
111,2n0R4z0W,Motor Function,75,60,10,30,Yes to treatment,77,1702.47,0.166666667,40,38,43,38,32,19,23,17,23,19,6,20,24,24,0,4,2,6,4,8,8,8,8,8,2,1,1,1,2,2,5.5,5.25,5.75,1,1,1,7,1,2,45,2,3,1,1,3,3,4,6,1,3,120000,Applied Behavioral Science,16,homemaker full time parent,2,1,0,36,21.2,-20.13333333,2.036925112,1.026936313,1.03610048,1.000953261,-0.991155137
112,2n0R4z0W,Motor Function,75,50,5,45,No to treatment,90,3798.625,0.1,40,38,43,38,32,19,23,17,23,19,6,20,24,24,0,4,2,6,4,8,8,8,8,8,2,1,1,1,2,2,5.5,5.25,5.75,1,1,1,7,1,2,45,2,3,1,1,3,3,4,6,1,3,120000,Applied Behavioral Science,16,homemaker full time parent,2,1,0,37,11.2,-25.13333333,2.036925112,1.026936313,1.03610048,1.000953261,-0.991155137
113,2n0R4z0W,Motor Function,75,35,35,30,No to treatment,77,5903.4,1,40,38,43,38,32,19,23,17,23,19,6,20,24,24,0,4,2,6,4,8,8,8,8,8,2,1,1,1,2,2,5.5,5.25,5.75,1,1,1,7,1,2,45,2,3,1,1,3,3,4,6,1,3,120000,Applied Behavioral Science,16,homemaker full time parent,2,1,0,38,-3.8,4.866666667,2.036925112,1.026936313,1.03610048,1.000953261,-0.991155137
114,2n0R4z0W,Motor Function,75,70,15,15,No to treatment,90,4591.43,0.214285714,40,38,43,38,32,19,23,17,23,19,6,20,24,24,0,4,2,6,4,8,8,8,8,8,2,1,1,1,2,2,5.5,5.25,5.75,1,1,1,7,1,2,45,2,3,1,1,3,3,4,6,1,3,120000,Applied Behavioral Science,16,homemaker full time parent,2,1,0,39,31.2,-15.13333333,2.036925112,1.026936313,1.03610048,1.000953261,-0.991155137
115,2n0R4z0W,Motor Function,75,10,45,45,No to treatment,90,8126.505,4.5,40,38,43,38,32,19,23,17,23,19,6,20,24,24,0,4,2,6,4,8,8,8,8,8,2,1,1,1,2,2,5.5,5.25,5.75,1,1,1,7,1,2,45,2,3,1,1,3,3,4,6,1,3,120000,Applied Behavioral Science,16,homemaker full time parent,2,1,0,40,-28.8,14.86666667,2.036925112,1.026936313,1.03610048,1.000953261,-0.991155137
116,2n0R4z0W,Motor Function,75,5,35,60,No to treatment,77,2431.935,7,40,38,43,38,32,19,23,17,23,19,6,20,24,24,0,4,2,6,4,8,8,8,8,8,2,1,1,1,2,2,5.5,5.25,5.75,1,1,1,7,1,2,45,2,3,1,1,3,3,4,6,1,3,120000,Applied Behavioral Science,16,homemaker full time parent,2,1,0,41,-33.8,4.866666667,2.036925112,1.026936313,1.03610048,1.000953261,-0.991155137
117,2n0R4z0W,Motor Function,75,50,5,45,Yes to treatment,77,4406.94,0.1,40,38,43,38,32,19,23,17,23,19,6,20,24,24,0,4,2,6,4,8,8,8,8,8,2,1,1,1,2,2,5.5,5.25,5.75,1,1,1,7,1,2,45,2,3,1,1,3,3,4,6,1,3,120000,Applied Behavioral Science,16,homemaker full time parent,2,1,0,42,11.2,-25.13333333,2.036925112,1.026936313,1.03610048,1.000953261,-0.991155137
118,2n0R4z0W,Motor Function,75,60,30,10,Yes to treatment,90,1326.835,0.5,40,38,43,38,32,19,23,17,23,19,6,20,24,24,0,4,2,6,4,8,8,8,8,8,2,1,1,1,2,2,5.5,5.25,5.75,1,1,1,7,1,2,45,2,3,1,1,3,3,4,6,1,3,120000,Applied Behavioral Science,16,homemaker full time parent,2,1,0,43,21.2,-0.133333333,2.036925112,1.026936313,1.03610048,1.000953261,-0.991155137
119,2n0R4z0W,Motor Function,75,50,40,10,Yes to treatment,90,1974.055,0.8,40,38,43,38,32,19,23,17,23,19,6,20,24,24,0,4,2,6,4,8,8,8,8,8,2,1,1,1,2,2,5.5,5.25,5.75,1,1,1,7,1,2,45,2,3,1,1,3,3,4,6,1,3,120000,Applied Behavioral Science,16,homemaker full time parent,2,1,0,44,11.2,9.866666667,2.036925112,1.026936313,1.03610048,1.000953261,-0.991155137
120,2n0R4z0W,Motor Function,75,50,20,30,Yes to treatment,77,1040.26,0.4,40,38,43,38,32,19,23,17,23,19,6,20,24,24,0,4,2,6,4,8,8,8,8,8,2,1,1,1,2,2,5.5,5.25,5.75,1,1,1,7,1,2,45,2,3,1,1,3,3,4,6,1,3,120000,Applied Behavioral Science,16,homemaker full time parent,2,1,0,45,11.2,-10.13333333,2.036925112,1.026936313,1.03610048,1.000953261,-0.991155137
121,2n0R4z0W,Motor Function,75,20,55,25,Yes to treatment,77,1632.13,2.75,40,38,43,38,32,19,23,17,23,19,6,20,24,24,0,4,2,6,4,8,8,8,8,8,2,1,1,1,2,2,5.5,5.25,5.75,1,1,1,7,1,2,45,2,3,1,1,3,3,4,6,1,3,120000,Applied Behavioral Science,16,homemaker full time parent,2,1,0,46,-18.8,24.86666667,2.036925112,1.026936313,1.03610048,1.000953261,-0.991155137
122,2n0R4z0W,Motor Function,75,70,25,5,Yes to treatment,90,2541.645,0.357142857,40,38,43,38,32,19,23,17,23,19,6,20,24,24,0,4,2,6,4,8,8,8,8,8,2,1,1,1,2,2,5.5,5.25,5.75,1,1,1,7,1,2,45,2,3,1,1,3,3,4,6,1,3,120000,Applied Behavioral Science,16,homemaker full time parent,2,1,0,47,31.2,-5.133333333,2.036925112,1.026936313,1.03610048,1.000953261,-0.991155137
123,2n0R4z0W,Motor Function,75,50,10,40,No to treatment,77,3208.075,0.2,40,38,43,38,32,19,23,17,23,19,6,20,24,24,0,4,2,6,4,8,8,8,8,8,2,1,1,1,2,2,5.5,5.25,5.75,1,1,1,7,1,2,45,2,3,1,1,3,3,4,6,1,3,120000,Applied Behavioral Science,16,homemaker full time parent,2,1,0,48,11.2,-20.13333333,2.036925112,1.026936313,1.03610048,1.000953261,-0.991155137
124,2n0R4z0W,Motor Function,75,65,15,20,Yes to treatment,90,3286.38,0.230769231,40,38,43,38,32,19,23,17,23,19,6,20,24,24,0,4,2,6,4,8,8,8,8,8,2,1,1,1,2,2,5.5,5.25,5.75,1,1,1,7,1,2,45,2,3,1,1,3,3,4,6,1,3,120000,Applied Behavioral Science,16,homemaker full time parent,2,1,0,49,26.2,-15.13333333,2.036925112,1.026936313,1.03610048,1.000953261,-0.991155137
125,2n0R4z0W,Motor Function,75,15,60,25,No to treatment,77,12503.86,4,40,38,43,38,32,19,23,17,23,19,6,20,24,24,0,4,2,6,4,8,8,8,8,8,2,1,1,1,2,2,5.5,5.25,5.75,1,1,1,7,1,2,45,2,3,1,1,3,3,4,6,1,3,120000,Applied Behavioral Science,16,homemaker full time parent,2,1,0,50,-23.8,29.86666667,2.036925112,1.026936313,1.03610048,1.000953261,-0.991155137
126,2n0R4z0W,Motor Function,75,35,20,45,Yes to treatment,90,935.575,0.571428571,40,38,43,38,32,19,23,17,23,19,6,20,24,24,0,4,2,6,4,8,8,8,8,8,2,1,1,1,2,2,5.5,5.25,5.75,1,1,1,7,1,2,45,2,3,1,1,3,3,4,6,1,3,120000,Applied Behavioral Science,16,homemaker full time parent,2,1,0,51,-3.8,-10.13333333,2.036925112,1.026936313,1.03610048,1.000953261,-0.991155137
127,2n0R4z0W,Motor Function,75,50,30,20,Yes to treatment,90,2334.64,0.6,40,38,43,38,32,19,23,17,23,19,6,20,24,24,0,4,2,6,4,8,8,8,8,8,2,1,1,1,2,2,5.5,5.25,5.75,1,1,1,7,1,2,45,2,3,1,1,3,3,4,6,1,3,120000,Applied Behavioral Science,16,homemaker full time parent,2,1,0,52,11.2,-0.133333333,2.036925112,1.026936313,1.03610048,1.000953261,-0.991155137
128,2n0R4z0W,Motor Function,75,40,40,20,Yes to treatment,90,1079.305,1,40,38,43,38,32,19,23,17,23,19,6,20,24,24,0,4,2,6,4,8,8,8,8,8,2,1,1,1,2,2,5.5,5.25,5.75,1,1,1,7,1,2,45,2,3,1,1,3,3,4,6,1,3,120000,Applied Behavioral Science,16,homemaker full time parent,2,1,0,53,1.2,9.866666667,2.036925112,1.026936313,1.03610048,1.000953261,-0.991155137
129,2n0R4z0W,Motor Function,75,45,10,45,No to treatment,77,4447.34,0.222222222,40,38,43,38,32,19,23,17,23,19,6,20,24,24,0,4,2,6,4,8,8,8,8,8,2,1,1,1,2,2,5.5,5.25,5.75,1,1,1,7,1,2,45,2,3,1,1,3,3,4,6,1,3,120000,Applied Behavioral Science,16,homemaker full time parent,2,1,0,54,6.2,-20.13333333,2.036925112,1.026936313,1.03610048,1.000953261,-0.991155137
130,2n0R4z0W,Motor Function,75,25,35,40,No to treatment,77,1495.43,1.4,40,38,43,38,32,19,23,17,23,19,6,20,24,24,0,4,2,6,4,8,8,8,8,8,2,1,1,1,2,2,5.5,5.25,5.75,1,1,1,7,1,2,45,2,3,1,1,3,3,4,6,1,3,120000,Applied Behavioral Science,16,homemaker full time parent,2,1,0,55,-13.8,4.866666667,2.036925112,1.026936313,1.03610048,1.000953261,-0.991155137
131,2n0R4z0W,Motor Function,75,35,55,10,Yes to treatment,90,6956.925,1.571428571,40,38,43,38,32,19,23,17,23,19,6,20,24,24,0,4,2,6,4,8,8,8,8,8,2,1,1,1,2,2,5.5,5.25,5.75,1,1,1,7,1,2,45,2,3,1,1,3,3,4,6,1,3,120000,Applied Behavioral Science,16,homemaker full time parent,2,1,0,56,-3.8,24.86666667,2.036925112,1.026936313,1.03610048,1.000953261,-0.991155137
132,2n0R4z0W,Motor Function,75,65,15,20,No to treatment,77,3790.66,0.230769231,40,38,43,38,32,19,23,17,23,19,6,20,24,24,0,4,2,6,4,8,8,8,8,8,2,1,1,1,2,2,5.5,5.25,5.75,1,1,1,7,1,2,45,2,3,1,1,3,3,4,6,1,3,120000,Applied Behavioral Science,16,homemaker full time parent,2,1,0,57,26.2,-15.13333333,2.036925112,1.026936313,1.03610048,1.000953261,-0.991155137
133,2n0R4z0W,Motor Function,75,5,5,90,Yes to treatment,90,1200.085,1,40,38,43,38,32,19,23,17,23,19,6,20,24,24,0,4,2,6,4,8,8,8,8,8,2,1,1,1,2,2,5.5,5.25,5.75,1,1,1,7,1,2,45,2,3,1,1,3,3,4,6,1,3,120000,Applied Behavioral Science,16,homemaker full time parent,2,1,0,58,-33.8,-25.13333333,2.036925112,1.026936313,1.03610048,1.000953261,-0.991155137
134,2n0R4z0W,Motor Function,75,15,65,20,Yes to treatment,90,959.5699999,4.333333333,40,38,43,38,32,19,23,17,23,19,6,20,24,24,0,4,2,6,4,8,8,8,8,8,2,1,1,1,2,2,5.5,5.25,5.75,1,1,1,7,1,2,45,2,3,1,1,3,3,4,6,1,3,120000,Applied Behavioral Science,16,homemaker full time parent,2,1,0,59,-23.8,34.86666667,2.036925112,1.026936313,1.03610048,1.000953261,-0.991155137
135,2n0R4z0W,Motor Function,75,30,40,30,No to treatment,77,8287.65,1.333333333,40,38,43,38,32,19,23,17,23,19,6,20,24,24,0,4,2,6,4,8,8,8,8,8,2,1,1,1,2,2,5.5,5.25,5.75,1,1,1,7,1,2,45,2,3,1,1,3,3,4,6,1,3,120000,Applied Behavioral Science,16,homemaker full time parent,2,1,0,60,-8.8,9.866666667,2.036925112,1.026936313,1.03610048,1.000953261,-0.991155137
136,2n0R4z0W,Motor Function,75,70,15,15,Yes to treatment,90,983.18,0.214285714,40,38,43,38,32,19,23,17,23,19,6,20,24,24,0,4,2,6,4,8,8,8,8,8,2,1,1,1,2,2,5.5,5.25,5.75,1,1,1,7,1,2,45,2,3,1,1,3,3,4,6,1,3,120000,Applied Behavioral Science,16,homemaker full time parent,2,1,0,61,31.2,-15.13333333,2.036925112,1.026936313,1.03610048,1.000953261,-0.991155137
137,2n0R4z0W,Motor Function,75,55,20,25,Yes to treatment,77,1783.47,0.363636364,40,38,43,38,32,19,23,17,23,19,6,20,24,24,0,4,2,6,4,8,8,8,8,8,2,1,1,1,2,2,5.5,5.25,5.75,1,1,1,7,1,2,45,2,3,1,1,3,3,4,6,1,3,120000,Applied Behavioral Science,16,homemaker full time parent,2,1,0,62,16.2,-10.13333333,2.036925112,1.026936313,1.03610048,1.000953261,-0.991155137
138,2n0R4z0W,Motor Function,75,15,70,15,Yes to treatment,77,3608.395,4.666666667,40,38,43,38,32,19,23,17,23,19,6,20,24,24,0,4,2,6,4,8,8,8,8,8,2,1,1,1,2,2,5.5,5.25,5.75,1,1,1,7,1,2,45,2,3,1,1,3,3,4,6,1,3,120000,Applied Behavioral Science,16,homemaker full time parent,2,1,0,63,-23.8,39.86666667,2.036925112,1.026936313,1.03610048,1.000953261,-0.991155137
139,2n0R4z0W,Motor Function,75,10,80,10,No to treatment,90,4695.16,8,40,38,43,38,32,19,23,17,23,19,6,20,24,24,0,4,2,6,4,8,8,8,8,8,2,1,1,1,2,2,5.5,5.25,5.75,1,1,1,7,1,2,45,2,3,1,1,3,3,4,6,1,3,120000,Applied Behavioral Science,16,homemaker full time parent,2,1,0,64,-28.8,49.86666667,2.036925112,1.026936313,1.03610048,1.000953261,-0.991155137
140,2n0R4z0W,Motor Function,75,50,45,5,Yes to treatment,77,1894.515,0.9,40,38,43,38,32,19,23,17,23,19,6,20,24,24,0,4,2,6,4,8,8,8,8,8,2,1,1,1,2,2,5.5,5.25,5.75,1,1,1,7,1,2,45,2,3,1,1,3,3,4,6,1,3,120000,Applied Behavioral Science,16,homemaker full time parent,2,1,0,65,11.2,14.86666667,2.036925112,1.026936313,1.03610048,1.000953261,-0.991155137
141,2n0R4z0W,Motor Function,75,60,35,5,Yes to treatment,90,2276.775,0.583333333,40,38,43,38,32,19,23,17,23,19,6,20,24,24,0,4,2,6,4,8,8,8,8,8,2,1,1,1,2,2,5.5,5.25,5.75,1,1,1,7,1,2,45,2,3,1,1,3,3,4,6,1,3,120000,Applied Behavioral Science,16,homemaker full time parent,2,1,0,66,21.2,4.866666667,2.036925112,1.026936313,1.03610048,1.000953261,-0.991155137
142,2n0R4z0W,Motor Function,75,40,25,35,Yes to treatment,90,7335.435,0.625,40,38,43,38,32,19,23,17,23,19,6,20,24,24,0,4,2,6,4,8,8,8,8,8,2,1,1,1,2,2,5.5,5.25,5.75,1,1,1,7,1,2,45,2,3,1,1,3,3,4,6,1,3,120000,Applied Behavioral Science,16,homemaker full time parent,2,1,0,67,1.2,-5.133333333,2.036925112,1.026936313,1.03610048,1.000953261,-0.991155137
143,2n0R4z0W,Motor Function,75,20,25,55,Yes to treatment,90,1567.255,1.25,40,38,43,38,32,19,23,17,23,19,6,20,24,24,0,4,2,6,4,8,8,8,8,8,2,1,1,1,2,2,5.5,5.25,5.75,1,1,1,7,1,2,45,2,3,1,1,3,3,4,6,1,3,120000,Applied Behavioral Science,16,homemaker full time parent,2,1,0,68,-18.8,-5.133333333,2.036925112,1.026936313,1.03610048,1.000953261,-0.991155137
144,2n0R4z0W,Motor Function,75,5,10,85,No to treatment,90,3173.83,2,40,38,43,38,32,19,23,17,23,19,6,20,24,24,0,4,2,6,4,8,8,8,8,8,2,1,1,1,2,2,5.5,5.25,5.75,1,1,1,7,1,2,45,2,3,1,1,3,3,4,6,1,3,120000,Applied Behavioral Science,16,homemaker full time parent,2,1,0,69,-33.8,-20.13333333,2.036925112,1.026936313,1.03610048,1.000953261,-0.991155137
145,2n0R4z0W,Motor Function,75,5,25,70,Yes to treatment,77,840.125,5,40,38,43,38,32,19,23,17,23,19,6,20,24,24,0,4,2,6,4,8,8,8,8,8,2,1,1,1,2,2,5.5,5.25,5.75,1,1,1,7,1,2,45,2,3,1,1,3,3,4,6,1,3,120000,Applied Behavioral Science,16,homemaker full time parent,2,1,0,70,-33.8,-5.133333333,2.036925112,1.026936313,1.03610048,1.000953261,-0.991155137
146,2n0R4z0W,Motor Function,75,20,65,15,Yes to treatment,77,3157.765,3.25,40,38,43,38,32,19,23,17,23,19,6,20,24,24,0,4,2,6,4,8,8,8,8,8,2,1,1,1,2,2,5.5,5.25,5.75,1,1,1,7,1,2,45,2,3,1,1,3,3,4,6,1,3,120000,Applied Behavioral Science,16,homemaker full time parent,2,1,0,71,-18.8,34.86666667,2.036925112,1.026936313,1.03610048,1.000953261,-0.991155137
147,2n0R4z0W,Motor Function,75,65,15,20,Yes to treatment,77,2271.165,0.230769231,40,38,43,38,32,19,23,17,23,19,6,20,24,24,0,4,2,6,4,8,8,8,8,8,2,1,1,1,2,2,5.5,5.25,5.75,1,1,1,7,1,2,45,2,3,1,1,3,3,4,6,1,3,120000,Applied Behavioral Science,16,homemaker full time parent,2,1,0,72,26.2,-15.13333333,2.036925112,1.026936313,1.03610048,1.000953261,-0.991155137
148,2n0R4z0W,Motor Function,75,30,55,15,No to treatment,77,5647.62,1.833333333,40,38,43,38,32,19,23,17,23,19,6,20,24,24,0,4,2,6,4,8,8,8,8,8,2,1,1,1,2,2,5.5,5.25,5.75,1,1,1,7,1,2,45,2,3,1,1,3,3,4,6,1,3,120000,Applied Behavioral Science,16,homemaker full time parent,2,1,0,73,-8.8,24.86666667,2.036925112,1.026936313,1.03610048,1.000953261,-0.991155137
149,2n0R4z0W,Motor Function,75,20,5,75,No to treatment,77,3265.165,0.25,40,38,43,38,32,19,23,17,23,19,6,20,24,24,0,4,2,6,4,8,8,8,8,8,2,1,1,1,2,2,5.5,5.25,5.75,1,1,1,7,1,2,45,2,3,1,1,3,3,4,6,1,3,120000,Applied Behavioral Science,16,homemaker full time parent,2,1,0,74,-18.8,-25.13333333,2.036925112,1.026936313,1.03610048,1.000953261,-0.991155137
150,2n0R4z0W,Motor Function,75,25,5,70,Yes to treatment,90,1783.24,0.2,40,38,43,38,32,19,23,17,23,19,6,20,24,24,0,4,2,6,4,8,8,8,8,8,2,1,1,1,2,2,5.5,5.25,5.75,1,1,1,7,1,2,45,2,3,1,1,3,3,4,6,1,3,120000,Applied Behavioral Science,16,homemaker full time parent,2,1,0,75,-13.8,-25.13333333,2.036925112,1.026936313,1.03610048,1.000953261,-0.991155137
151,4lsMLrPn,Motor Function,75,15,20,65,Yes to treatment,77,3360.885,1.333333333,29,35,43,41,43,19,24,7,20,10,19,17,10,14,5,8,8,7,8,6,6,4,5,6,2,2,2,2,1,1,5.625,5.25,6,1,6,4,1,6,2,27,4,2,1,7,1,1,1,1,1,2,76000,English,15,Group fitness instructor (currently unemployed due to coronavirus),1,1,0,1,-17.66666667,-12.33333333,0.165665195,0.563629712,1.865244617,1.013159795,-0.302174689
152,4lsMLrPn,Motor Function,75,5,85,10,Yes to treatment,90,2982.405,17,29,35,43,41,43,19,24,7,20,10,19,17,10,14,5,8,8,7,8,6,6,4,5,6,2,2,2,2,1,1,5.625,5.25,6,1,6,4,1,6,2,27,4,2,1,7,1,1,1,1,1,2,76000,English,15,Group fitness instructor (currently unemployed due to coronavirus),1,1,0,2,-27.66666667,52.66666667,0.165665195,0.563629712,1.865244617,1.013159795,-0.302174689
153,4lsMLrPn,Motor Function,75,25,25,50,No to treatment,77,759.69,1,29,35,43,41,43,19,24,7,20,10,19,17,10,14,5,8,8,7,8,6,6,4,5,6,2,2,2,2,1,1,5.625,5.25,6,1,6,4,1,6,2,27,4,2,1,7,1,1,1,1,1,2,76000,English,15,Group fitness instructor (currently unemployed due to coronavirus),1,1,0,3,-7.666666667,-7.333333333,0.165665195,0.563629712,1.865244617,1.013159795,-0.302174689
154,4lsMLrPn,Motor Function,75,25,70,5,Yes to treatment,90,732.77,2.8,29,35,43,41,43,19,24,7,20,10,19,17,10,14,5,8,8,7,8,6,6,4,5,6,2,2,2,2,1,1,5.625,5.25,6,1,6,4,1,6,2,27,4,2,1,7,1,1,1,1,1,2,76000,English,15,Group fitness instructor (currently unemployed due to coronavirus),1,1,0,4,-7.666666667,37.66666667,0.165665195,0.563629712,1.865244617,1.013159795,-0.302174689
155,4lsMLrPn,Motor Function,75,60,5,35,No to treatment,90,657.13,0.083333333,29,35,43,41,43,19,24,7,20,10,19,17,10,14,5,8,8,7,8,6,6,4,5,6,2,2,2,2,1,1,5.625,5.25,6,1,6,4,1,6,2,27,4,2,1,7,1,1,1,1,1,2,76000,English,15,Group fitness instructor (currently unemployed due to coronavirus),1,1,0,5,27.33333333,-27.33333333,0.165665195,0.563629712,1.865244617,1.013159795,-0.302174689
156,4lsMLrPn,Motor Function,75,25,55,20,Yes to treatment,77,591.075,2.2,29,35,43,41,43,19,24,7,20,10,19,17,10,14,5,8,8,7,8,6,6,4,5,6,2,2,2,2,1,1,5.625,5.25,6,1,6,4,1,6,2,27,4,2,1,7,1,1,1,1,1,2,76000,English,15,Group fitness instructor (currently unemployed due to coronavirus),1,1,0,6,-7.666666667,22.66666667,0.165665195,0.563629712,1.865244617,1.013159795,-0.302174689
157,4lsMLrPn,Motor Function,75,15,30,55,Yes to treatment,90,2146.565,2,29,35,43,41,43,19,24,7,20,10,19,17,10,14,5,8,8,7,8,6,6,4,5,6,2,2,2,2,1,1,5.625,5.25,6,1,6,4,1,6,2,27,4,2,1,7,1,1,1,1,1,2,76000,English,15,Group fitness instructor (currently unemployed due to coronavirus),1,1,0,7,-17.66666667,-2.333333333,0.165665195,0.563629712,1.865244617,1.013159795,-0.302174689
158,4lsMLrPn,Motor Function,75,35,45,20,Yes to treatment,90,1286.29,1.285714286,29,35,43,41,43,19,24,7,20,10,19,17,10,14,5,8,8,7,8,6,6,4,5,6,2,2,2,2,1,1,5.625,5.25,6,1,6,4,1,6,2,27,4,2,1,7,1,1,1,1,1,2,76000,English,15,Group fitness instructor (currently unemployed due to coronavirus),1,1,0,8,2.333333333,12.66666667,0.165665195,0.563629712,1.865244617,1.013159795,-0.302174689
159,4lsMLrPn,Motor Function,75,30,50,20,Yes to treatment,90,648.705,1.666666667,29,35,43,41,43,19,24,7,20,10,19,17,10,14,5,8,8,7,8,6,6,4,5,6,2,2,2,2,1,1,5.625,5.25,6,1,6,4,1,6,2,27,4,2,1,7,1,1,1,1,1,2,76000,English,15,Group fitness instructor (currently unemployed due to coronavirus),1,1,0,9,-2.666666667,17.66666667,0.165665195,0.563629712,1.865244617,1.013159795,-0.302174689
160,4lsMLrPn,Motor Function,75,5,25,70,Yes to treatment,90,1117.015,5,29,35,43,41,43,19,24,7,20,10,19,17,10,14,5,8,8,7,8,6,6,4,5,6,2,2,2,2,1,1,5.625,5.25,6,1,6,4,1,6,2,27,4,2,1,7,1,1,1,1,1,2,76000,English,15,Group fitness instructor (currently unemployed due to coronavirus),1,1,0,10,-27.66666667,-7.333333333,0.165665195,0.563629712,1.865244617,1.013159795,-0.302174689
161,4lsMLrPn,Motor Function,75,40,5,55,No to treatment,90,2197.84,0.125,29,35,43,41,43,19,24,7,20,10,19,17,10,14,5,8,8,7,8,6,6,4,5,6,2,2,2,2,1,1,5.625,5.25,6,1,6,4,1,6,2,27,4,2,1,7,1,1,1,1,1,2,76000,English,15,Group fitness instructor (currently unemployed due to coronavirus),1,1,0,11,7.333333333,-27.33333333,0.165665195,0.563629712,1.865244617,1.013159795,-0.302174689
162,4lsMLrPn,Motor Function,75,15,80,5,Yes to treatment,90,1907.735,5.333333333,29,35,43,41,43,19,24,7,20,10,19,17,10,14,5,8,8,7,8,6,6,4,5,6,2,2,2,2,1,1,5.625,5.25,6,1,6,4,1,6,2,27,4,2,1,7,1,1,1,1,1,2,76000,English,15,Group fitness instructor (currently unemployed due to coronavirus),1,1,0,12,-17.66666667,47.66666667,0.165665195,0.563629712,1.865244617,1.013159795,-0.302174689
163,4lsMLrPn,Motor Function,75,40,55,5,Yes to treatment,77,5543.865,1.375,29,35,43,41,43,19,24,7,20,10,19,17,10,14,5,8,8,7,8,6,6,4,5,6,2,2,2,2,1,1,5.625,5.25,6,1,6,4,1,6,2,27,4,2,1,7,1,1,1,1,1,2,76000,English,15,Group fitness instructor (currently unemployed due to coronavirus),1,1,0,13,7.333333333,22.66666667,0.165665195,0.563629712,1.865244617,1.013159795,-0.302174689
164,4lsMLrPn,Motor Function,75,5,75,20,Yes to treatment,90,694.285,15,29,35,43,41,43,19,24,7,20,10,19,17,10,14,5,8,8,7,8,6,6,4,5,6,2,2,2,2,1,1,5.625,5.25,6,1,6,4,1,6,2,27,4,2,1,7,1,1,1,1,1,2,76000,English,15,Group fitness instructor (currently unemployed due to coronavirus),1,1,0,14,-27.66666667,42.66666667,0.165665195,0.563629712,1.865244617,1.013159795,-0.302174689
165,4lsMLrPn,Motor Function,75,45,30,25,No to treatment,77,1084.27,0.666666667,29,35,43,41,43,19,24,7,20,10,19,17,10,14,5,8,8,7,8,6,6,4,5,6,2,2,2,2,1,1,5.625,5.25,6,1,6,4,1,6,2,27,4,2,1,7,1,1,1,1,1,2,76000,English,15,Group fitness instructor (currently unemployed due to coronavirus),1,1,0,15,12.33333333,-2.333333333,0.165665195,0.563629712,1.865244617,1.013159795,-0.302174689
166,4lsMLrPn,Motor Function,75,10,65,25,Yes to treatment,77,665.65,6.5,29,35,43,41,43,19,24,7,20,10,19,17,10,14,5,8,8,7,8,6,6,4,5,6,2,2,2,2,1,1,5.625,5.25,6,1,6,4,1,6,2,27,4,2,1,7,1,1,1,1,1,2,76000,English,15,Group fitness instructor (currently unemployed due to coronavirus),1,1,0,16,-22.66666667,32.66666667,0.165665195,0.563629712,1.865244617,1.013159795,-0.302174689
167,4lsMLrPn,Motor Function,75,35,20,45,No to treatment,90,1075.905,0.571428571,29,35,43,41,43,19,24,7,20,10,19,17,10,14,5,8,8,7,8,6,6,4,5,6,2,2,2,2,1,1,5.625,5.25,6,1,6,4,1,6,2,27,4,2,1,7,1,1,1,1,1,2,76000,English,15,Group fitness instructor (currently unemployed due to coronavirus),1,1,0,17,2.333333333,-12.33333333,0.165665195,0.563629712,1.865244617,1.013159795,-0.302174689
168,4lsMLrPn,Motor Function,75,55,15,30,No to treatment,90,677.925,0.272727273,29,35,43,41,43,19,24,7,20,10,19,17,10,14,5,8,8,7,8,6,6,4,5,6,2,2,2,2,1,1,5.625,5.25,6,1,6,4,1,6,2,27,4,2,1,7,1,1,1,1,1,2,76000,English,15,Group fitness instructor (currently unemployed due to coronavirus),1,1,0,18,22.33333333,-17.33333333,0.165665195,0.563629712,1.865244617,1.013159795,-0.302174689
169,4lsMLrPn,Motor Function,75,5,60,35,Yes to treatment,77,657.935,12,29,35,43,41,43,19,24,7,20,10,19,17,10,14,5,8,8,7,8,6,6,4,5,6,2,2,2,2,1,1,5.625,5.25,6,1,6,4,1,6,2,27,4,2,1,7,1,1,1,1,1,2,76000,English,15,Group fitness instructor (currently unemployed due to coronavirus),1,1,0,19,-27.66666667,27.66666667,0.165665195,0.563629712,1.865244617,1.013159795,-0.302174689
170,4lsMLrPn,Motor Function,75,65,30,5,No to treatment,77,793.595,0.461538462,29,35,43,41,43,19,24,7,20,10,19,17,10,14,5,8,8,7,8,6,6,4,5,6,2,2,2,2,1,1,5.625,5.25,6,1,6,4,1,6,2,27,4,2,1,7,1,1,1,1,1,2,76000,English,15,Group fitness instructor (currently unemployed due to coronavirus),1,1,0,20,32.33333333,-2.333333333,0.165665195,0.563629712,1.865244617,1.013159795,-0.302174689
171,4lsMLrPn,Motor Function,75,25,60,15,Yes to treatment,77,595.415,2.4,29,35,43,41,43,19,24,7,20,10,19,17,10,14,5,8,8,7,8,6,6,4,5,6,2,2,2,2,1,1,5.625,5.25,6,1,6,4,1,6,2,27,4,2,1,7,1,1,1,1,1,2,76000,English,15,Group fitness instructor (currently unemployed due to coronavirus),1,1,0,21,-7.666666667,27.66666667,0.165665195,0.563629712,1.865244617,1.013159795,-0.302174689
172,4lsMLrPn,Motor Function,75,10,45,45,Yes to treatment,77,677.64,4.5,29,35,43,41,43,19,24,7,20,10,19,17,10,14,5,8,8,7,8,6,6,4,5,6,2,2,2,2,1,1,5.625,5.25,6,1,6,4,1,6,2,27,4,2,1,7,1,1,1,1,1,2,76000,English,15,Group fitness instructor (currently unemployed due to coronavirus),1,1,0,22,-22.66666667,12.66666667,0.165665195,0.563629712,1.865244617,1.013159795,-0.302174689
173,4lsMLrPn,Motor Function,75,45,35,20,No to treatment,90,2130.1,0.777777778,29,35,43,41,43,19,24,7,20,10,19,17,10,14,5,8,8,7,8,6,6,4,5,6,2,2,2,2,1,1,5.625,5.25,6,1,6,4,1,6,2,27,4,2,1,7,1,1,1,1,1,2,76000,English,15,Group fitness instructor (currently unemployed due to coronavirus),1,1,0,23,12.33333333,2.666666667,0.165665195,0.563629712,1.865244617,1.013159795,-0.302174689
174,4lsMLrPn,Motor Function,75,20,5,75,No to treatment,90,3779.355,0.25,29,35,43,41,43,19,24,7,20,10,19,17,10,14,5,8,8,7,8,6,6,4,5,6,2,2,2,2,1,1,5.625,5.25,6,1,6,4,1,6,2,27,4,2,1,7,1,1,1,1,1,2,76000,English,15,Group fitness instructor (currently unemployed due to coronavirus),1,1,0,24,-12.66666667,-27.33333333,0.165665195,0.563629712,1.865244617,1.013159795,-0.302174689
175,4lsMLrPn,Motor Function,75,60,20,20,No to treatment,77,1738.835,0.333333333,29,35,43,41,43,19,24,7,20,10,19,17,10,14,5,8,8,7,8,6,6,4,5,6,2,2,2,2,1,1,5.625,5.25,6,1,6,4,1,6,2,27,4,2,1,7,1,1,1,1,1,2,76000,English,15,Group fitness instructor (currently unemployed due to coronavirus),1,1,0,25,27.33333333,-12.33333333,0.165665195,0.563629712,1.865244617,1.013159795,-0.302174689
176,4lsMLrPn,Motor Function,75,35,40,25,Yes to treatment,90,1116.005,1.142857143,29,35,43,41,43,19,24,7,20,10,19,17,10,14,5,8,8,7,8,6,6,4,5,6,2,2,2,2,1,1,5.625,5.25,6,1,6,4,1,6,2,27,4,2,1,7,1,1,1,1,1,2,76000,English,15,Group fitness instructor (currently unemployed due to coronavirus),1,1,0,26,2.333333333,7.666666667,0.165665195,0.563629712,1.865244617,1.013159795,-0.302174689
177,4lsMLrPn,Motor Function,75,20,5,75,No to treatment,77,812.705,0.25,29,35,43,41,43,19,24,7,20,10,19,17,10,14,5,8,8,7,8,6,6,4,5,6,2,2,2,2,1,1,5.625,5.25,6,1,6,4,1,6,2,27,4,2,1,7,1,1,1,1,1,2,76000,English,15,Group fitness instructor (currently unemployed due to coronavirus),1,1,0,27,-12.66666667,-27.33333333,0.165665195,0.563629712,1.865244617,1.013159795,-0.302174689
178,4lsMLrPn,Motor Function,75,55,15,30,No to treatment,77,1235.97,0.272727273,29,35,43,41,43,19,24,7,20,10,19,17,10,14,5,8,8,7,8,6,6,4,5,6,2,2,2,2,1,1,5.625,5.25,6,1,6,4,1,6,2,27,4,2,1,7,1,1,1,1,1,2,76000,English,15,Group fitness instructor (currently unemployed due to coronavirus),1,1,0,28,22.33333333,-17.33333333,0.165665195,0.563629712,1.865244617,1.013159795,-0.302174689
179,4lsMLrPn,Motor Function,75,45,50,5,Yes to treatment,90,609.125,1.111111111,29,35,43,41,43,19,24,7,20,10,19,17,10,14,5,8,8,7,8,6,6,4,5,6,2,2,2,2,1,1,5.625,5.25,6,1,6,4,1,6,2,27,4,2,1,7,1,1,1,1,1,2,76000,English,15,Group fitness instructor (currently unemployed due to coronavirus),1,1,0,29,12.33333333,17.66666667,0.165665195,0.563629712,1.865244617,1.013159795,-0.302174689
180,4lsMLrPn,Motor Function,75,30,35,35,No to treatment,77,1141.765,1.166666667,29,35,43,41,43,19,24,7,20,10,19,17,10,14,5,8,8,7,8,6,6,4,5,6,2,2,2,2,1,1,5.625,5.25,6,1,6,4,1,6,2,27,4,2,1,7,1,1,1,1,1,2,76000,English,15,Group fitness instructor (currently unemployed due to coronavirus),1,1,0,30,-2.666666667,2.666666667,0.165665195,0.563629712,1.865244617,1.013159795,-0.302174689
181,4lsMLrPn,Motor Function,75,55,35,10,No to treatment,77,2850.785,0.636363636,29,35,43,41,43,19,24,7,20,10,19,17,10,14,5,8,8,7,8,6,6,4,5,6,2,2,2,2,1,1,5.625,5.25,6,1,6,4,1,6,2,27,4,2,1,7,1,1,1,1,1,2,76000,English,15,Group fitness instructor (currently unemployed due to coronavirus),1,1,0,31,22.33333333,2.666666667,0.165665195,0.563629712,1.865244617,1.013159795,-0.302174689
182,4lsMLrPn,Motor Function,75,25,25,50,No to treatment,90,1292.5,1,29,35,43,41,43,19,24,7,20,10,19,17,10,14,5,8,8,7,8,6,6,4,5,6,2,2,2,2,1,1,5.625,5.25,6,1,6,4,1,6,2,27,4,2,1,7,1,1,1,1,1,2,76000,English,15,Group fitness instructor (currently unemployed due to coronavirus),1,1,0,32,-7.666666667,-7.333333333,0.165665195,0.563629712,1.865244617,1.013159795,-0.302174689
183,4lsMLrPn,Motor Function,75,5,60,35,Yes to treatment,90,840.985,12,29,35,43,41,43,19,24,7,20,10,19,17,10,14,5,8,8,7,8,6,6,4,5,6,2,2,2,2,1,1,5.625,5.25,6,1,6,4,1,6,2,27,4,2,1,7,1,1,1,1,1,2,76000,English,15,Group fitness instructor (currently unemployed due to coronavirus),1,1,0,33,-27.66666667,27.66666667,0.165665195,0.563629712,1.865244617,1.013159795,-0.302174689
184,4lsMLrPn,Motor Function,75,30,35,35,Yes to treatment,90,1168.83,1.166666667,29,35,43,41,43,19,24,7,20,10,19,17,10,14,5,8,8,7,8,6,6,4,5,6,2,2,2,2,1,1,5.625,5.25,6,1,6,4,1,6,2,27,4,2,1,7,1,1,1,1,1,2,76000,English,15,Group fitness instructor (currently unemployed due to coronavirus),1,1,0,34,-2.666666667,2.666666667,0.165665195,0.563629712,1.865244617,1.013159795,-0.302174689
185,4lsMLrPn,Motor Function,75,5,10,85,Yes to treatment,90,1660.72,2,29,35,43,41,43,19,24,7,20,10,19,17,10,14,5,8,8,7,8,6,6,4,5,6,2,2,2,2,1,1,5.625,5.25,6,1,6,4,1,6,2,27,4,2,1,7,1,1,1,1,1,2,76000,English,15,Group fitness instructor (currently unemployed due to coronavirus),1,1,0,35,-27.66666667,-22.33333333,0.165665195,0.563629712,1.865244617,1.013159795,-0.302174689
186,4lsMLrPn,Motor Function,75,60,20,20,No to treatment,77,1039.92,0.333333333,29,35,43,41,43,19,24,7,20,10,19,17,10,14,5,8,8,7,8,6,6,4,5,6,2,2,2,2,1,1,5.625,5.25,6,1,6,4,1,6,2,27,4,2,1,7,1,1,1,1,1,2,76000,English,15,Group fitness instructor (currently unemployed due to coronavirus),1,1,0,36,27.33333333,-12.33333333,0.165665195,0.563629712,1.865244617,1.013159795,-0.302174689
187,4lsMLrPn,Motor Function,75,60,20,20,No to treatment,77,840.505,0.333333333,29,35,43,41,43,19,24,7,20,10,19,17,10,14,5,8,8,7,8,6,6,4,5,6,2,2,2,2,1,1,5.625,5.25,6,1,6,4,1,6,2,27,4,2,1,7,1,1,1,1,1,2,76000,English,15,Group fitness instructor (currently unemployed due to coronavirus),1,1,0,37,27.33333333,-12.33333333,0.165665195,0.563629712,1.865244617,1.013159795,-0.302174689
188,4lsMLrPn,Motor Function,75,45,35,20,No to treatment,77,1778.425,0.777777778,29,35,43,41,43,19,24,7,20,10,19,17,10,14,5,8,8,7,8,6,6,4,5,6,2,2,2,2,1,1,5.625,5.25,6,1,6,4,1,6,2,27,4,2,1,7,1,1,1,1,1,2,76000,English,15,Group fitness instructor (currently unemployed due to coronavirus),1,1,0,38,12.33333333,2.666666667,0.165665195,0.563629712,1.865244617,1.013159795,-0.302174689
189,4lsMLrPn,Motor Function,75,65,30,5,No to treatment,77,915.885,0.461538462,29,35,43,41,43,19,24,7,20,10,19,17,10,14,5,8,8,7,8,6,6,4,5,6,2,2,2,2,1,1,5.625,5.25,6,1,6,4,1,6,2,27,4,2,1,7,1,1,1,1,1,2,76000,English,15,Group fitness instructor (currently unemployed due to coronavirus),1,1,0,39,32.33333333,-2.333333333,0.165665195,0.563629712,1.865244617,1.013159795,-0.302174689
190,4lsMLrPn,Motor Function,75,55,25,20,No to treatment,90,698.14,0.454545455,29,35,43,41,43,19,24,7,20,10,19,17,10,14,5,8,8,7,8,6,6,4,5,6,2,2,2,2,1,1,5.625,5.25,6,1,6,4,1,6,2,27,4,2,1,7,1,1,1,1,1,2,76000,English,15,Group fitness instructor (currently unemployed due to coronavirus),1,1,0,40,22.33333333,-7.333333333,0.165665195,0.563629712,1.865244617,1.013159795,-0.302174689
191,4lsMLrPn,Motor Function,75,70,15,15,No to treatment,77,977.745,0.214285714,29,35,43,41,43,19,24,7,20,10,19,17,10,14,5,8,8,7,8,6,6,4,5,6,2,2,2,2,1,1,5.625,5.25,6,1,6,4,1,6,2,27,4,2,1,7,1,1,1,1,1,2,76000,English,15,Group fitness instructor (currently unemployed due to coronavirus),1,1,0,41,37.33333333,-17.33333333,0.165665195,0.563629712,1.865244617,1.013159795,-0.302174689
192,4lsMLrPn,Motor Function,75,15,20,65,Yes to treatment,77,1222.995,1.333333333,29,35,43,41,43,19,24,7,20,10,19,17,10,14,5,8,8,7,8,6,6,4,5,6,2,2,2,2,1,1,5.625,5.25,6,1,6,4,1,6,2,27,4,2,1,7,1,1,1,1,1,2,76000,English,15,Group fitness instructor (currently unemployed due to coronavirus),1,1,0,42,-17.66666667,-12.33333333,0.165665195,0.563629712,1.865244617,1.013159795,-0.302174689
193,4lsMLrPn,Motor Function,75,55,15,30,No to treatment,77,892.87,0.272727273,29,35,43,41,43,19,24,7,20,10,19,17,10,14,5,8,8,7,8,6,6,4,5,6,2,2,2,2,1,1,5.625,5.25,6,1,6,4,1,6,2,27,4,2,1,7,1,1,1,1,1,2,76000,English,15,Group fitness instructor (currently unemployed due to coronavirus),1,1,0,43,22.33333333,-17.33333333,0.165665195,0.563629712,1.865244617,1.013159795,-0.302174689
194,4lsMLrPn,Motor Function,75,55,15,30,No to treatment,90,1299.43,0.272727273,29,35,43,41,43,19,24,7,20,10,19,17,10,14,5,8,8,7,8,6,6,4,5,6,2,2,2,2,1,1,5.625,5.25,6,1,6,4,1,6,2,27,4,2,1,7,1,1,1,1,1,2,76000,English,15,Group fitness instructor (currently unemployed due to coronavirus),1,1,0,44,22.33333333,-17.33333333,0.165665195,0.563629712,1.865244617,1.013159795,-0.302174689
195,4lsMLrPn,Motor Function,75,40,35,25,No to treatment,90,822.155,0.875,29,35,43,41,43,19,24,7,20,10,19,17,10,14,5,8,8,7,8,6,6,4,5,6,2,2,2,2,1,1,5.625,5.25,6,1,6,4,1,6,2,27,4,2,1,7,1,1,1,1,1,2,76000,English,15,Group fitness instructor (currently unemployed due to coronavirus),1,1,0,45,7.333333333,2.666666667,0.165665195,0.563629712,1.865244617,1.013159795,-0.302174689
196,4lsMLrPn,Motor Function,75,35,15,50,No to treatment,77,738.7,0.428571429,29,35,43,41,43,19,24,7,20,10,19,17,10,14,5,8,8,7,8,6,6,4,5,6,2,2,2,2,1,1,5.625,5.25,6,1,6,4,1,6,2,27,4,2,1,7,1,1,1,1,1,2,76000,English,15,Group fitness instructor (currently unemployed due to coronavirus),1,1,0,46,2.333333333,-17.33333333,0.165665195,0.563629712,1.865244617,1.013159795,-0.302174689
197,4lsMLrPn,Motor Function,75,10,25,65,Yes to treatment,90,1840.95,2.5,29,35,43,41,43,19,24,7,20,10,19,17,10,14,5,8,8,7,8,6,6,4,5,6,2,2,2,2,1,1,5.625,5.25,6,1,6,4,1,6,2,27,4,2,1,7,1,1,1,1,1,2,76000,English,15,Group fitness instructor (currently unemployed due to coronavirus),1,1,0,47,-22.66666667,-7.333333333,0.165665195,0.563629712,1.865244617,1.013159795,-0.302174689
198,4lsMLrPn,Motor Function,75,25,70,5,Yes to treatment,77,603.52,2.8,29,35,43,41,43,19,24,7,20,10,19,17,10,14,5,8,8,7,8,6,6,4,5,6,2,2,2,2,1,1,5.625,5.25,6,1,6,4,1,6,2,27,4,2,1,7,1,1,1,1,1,2,76000,English,15,Group fitness instructor (currently unemployed due to coronavirus),1,1,0,48,-7.666666667,37.66666667,0.165665195,0.563629712,1.865244617,1.013159795,-0.302174689
199,4lsMLrPn,Motor Function,75,5,80,15,Yes to treatment,77,700.425,16,29,35,43,41,43,19,24,7,20,10,19,17,10,14,5,8,8,7,8,6,6,4,5,6,2,2,2,2,1,1,5.625,5.25,6,1,6,4,1,6,2,27,4,2,1,7,1,1,1,1,1,2,76000,English,15,Group fitness instructor (currently unemployed due to coronavirus),1,1,0,49,-27.66666667,47.66666667,0.165665195,0.563629712,1.865244617,1.013159795,-0.302174689
200,4lsMLrPn,Motor Function,75,50,20,30,No to treatment,77,1801.155,0.4,29,35,43,41,43,19,24,7,20,10,19,17,10,14,5,8,8,7,8,6,6,4,5,6,2,2,2,2,1,1,5.625,5.25,6,1,6,4,1,6,2,27,4,2,1,7,1,1,1,1,1,2,76000,English,15,Group fitness instructor (currently unemployed due to coronavirus),1,1,0,50,17.33333333,-12.33333333,0.165665195,0.563629712,1.865244617,1.013159795,-0.302174689
201,4lsMLrPn,Motor Function,75,65,15,20,No to treatment,90,861.56,0.230769231,29,35,43,41,43,19,24,7,20,10,19,17,10,14,5,8,8,7,8,6,6,4,5,6,2,2,2,2,1,1,5.625,5.25,6,1,6,4,1,6,2,27,4,2,1,7,1,1,1,1,1,2,76000,English,15,Group fitness instructor (currently unemployed due to coronavirus),1,1,0,51,32.33333333,-17.33333333,0.165665195,0.563629712,1.865244617,1.013159795,-0.302174689
202,4lsMLrPn,Motor Function,75,35,5,60,No to treatment,77,638.025,0.142857143,29,35,43,41,43,19,24,7,20,10,19,17,10,14,5,8,8,7,8,6,6,4,5,6,2,2,2,2,1,1,5.625,5.25,6,1,6,4,1,6,2,27,4,2,1,7,1,1,1,1,1,2,76000,English,15,Group fitness instructor (currently unemployed due to coronavirus),1,1,0,52,2.333333333,-27.33333333,0.165665195,0.563629712,1.865244617,1.013159795,-0.302174689
203,4lsMLrPn,Motor Function,75,30,20,50,No to treatment,90,797.67,0.666666667,29,35,43,41,43,19,24,7,20,10,19,17,10,14,5,8,8,7,8,6,6,4,5,6,2,2,2,2,1,1,5.625,5.25,6,1,6,4,1,6,2,27,4,2,1,7,1,1,1,1,1,2,76000,English,15,Group fitness instructor (currently unemployed due to coronavirus),1,1,0,53,-2.666666667,-12.33333333,0.165665195,0.563629712,1.865244617,1.013159795,-0.302174689
204,4lsMLrPn,Motor Function,75,25,60,15,Yes to treatment,90,820.9,2.4,29,35,43,41,43,19,24,7,20,10,19,17,10,14,5,8,8,7,8,6,6,4,5,6,2,2,2,2,1,1,5.625,5.25,6,1,6,4,1,6,2,27,4,2,1,7,1,1,1,1,1,2,76000,English,15,Group fitness instructor (currently unemployed due to coronavirus),1,1,0,54,-7.666666667,27.66666667,0.165665195,0.563629712,1.865244617,1.013159795,-0.302174689
205,4lsMLrPn,Motor Function,75,35,10,55,No to treatment,90,738.45,0.285714286,29,35,43,41,43,19,24,7,20,10,19,17,10,14,5,8,8,7,8,6,6,4,5,6,2,2,2,2,1,1,5.625,5.25,6,1,6,4,1,6,2,27,4,2,1,7,1,1,1,1,1,2,76000,English,15,Group fitness instructor (currently unemployed due to coronavirus),1,1,0,55,2.333333333,-22.33333333,0.165665195,0.563629712,1.865244617,1.013159795,-0.302174689
206,4lsMLrPn,Motor Function,75,55,10,35,No to treatment,90,721.375,0.181818182,29,35,43,41,43,19,24,7,20,10,19,17,10,14,5,8,8,7,8,6,6,4,5,6,2,2,2,2,1,1,5.625,5.25,6,1,6,4,1,6,2,27,4,2,1,7,1,1,1,1,1,2,76000,English,15,Group fitness instructor (currently unemployed due to coronavirus),1,1,0,56,22.33333333,-22.33333333,0.165665195,0.563629712,1.865244617,1.013159795,-0.302174689
207,4lsMLrPn,Motor Function,75,25,25,50,Yes to treatment,77,2996.185,1,29,35,43,41,43,19,24,7,20,10,19,17,10,14,5,8,8,7,8,6,6,4,5,6,2,2,2,2,1,1,5.625,5.25,6,1,6,4,1,6,2,27,4,2,1,7,1,1,1,1,1,2,76000,English,15,Group fitness instructor (currently unemployed due to coronavirus),1,1,0,57,-7.666666667,-7.333333333,0.165665195,0.563629712,1.865244617,1.013159795,-0.302174689
208,4lsMLrPn,Motor Function,75,40,10,50,No to treatment,77,620.61,0.25,29,35,43,41,43,19,24,7,20,10,19,17,10,14,5,8,8,7,8,6,6,4,5,6,2,2,2,2,1,1,5.625,5.25,6,1,6,4,1,6,2,27,4,2,1,7,1,1,1,1,1,2,76000,English,15,Group fitness instructor (currently unemployed due to coronavirus),1,1,0,58,7.333333333,-22.33333333,0.165665195,0.563629712,1.865244617,1.013159795,-0.302174689
209,4lsMLrPn,Motor Function,75,65,15,20,No to treatment,90,778.63,0.230769231,29,35,43,41,43,19,24,7,20,10,19,17,10,14,5,8,8,7,8,6,6,4,5,6,2,2,2,2,1,1,5.625,5.25,6,1,6,4,1,6,2,27,4,2,1,7,1,1,1,1,1,2,76000,English,15,Group fitness instructor (currently unemployed due to coronavirus),1,1,0,59,32.33333333,-17.33333333,0.165665195,0.563629712,1.865244617,1.013159795,-0.302174689
210,4lsMLrPn,Motor Function,75,25,5,70,No to treatment,90,843.45,0.2,29,35,43,41,43,19,24,7,20,10,19,17,10,14,5,8,8,7,8,6,6,4,5,6,2,2,2,2,1,1,5.625,5.25,6,1,6,4,1,6,2,27,4,2,1,7,1,1,1,1,1,2,76000,English,15,Group fitness instructor (currently unemployed due to coronavirus),1,1,0,60,-7.666666667,-27.33333333,0.165665195,0.563629712,1.865244617,1.013159795,-0.302174689
211,4lsMLrPn,Motor Function,75,35,20,45,No to treatment,90,907.13,0.571428571,29,35,43,41,43,19,24,7,20,10,19,17,10,14,5,8,8,7,8,6,6,4,5,6,2,2,2,2,1,1,5.625,5.25,6,1,6,4,1,6,2,27,4,2,1,7,1,1,1,1,1,2,76000,English,15,Group fitness instructor (currently unemployed due to coronavirus),1,1,0,61,2.333333333,-12.33333333,0.165665195,0.563629712,1.865244617,1.013159795,-0.302174689
212,4lsMLrPn,Motor Function,75,50,30,20,No to treatment,90,1891,0.6,29,35,43,41,43,19,24,7,20,10,19,17,10,14,5,8,8,7,8,6,6,4,5,6,2,2,2,2,1,1,5.625,5.25,6,1,6,4,1,6,2,27,4,2,1,7,1,1,1,1,1,2,76000,English,15,Group fitness instructor (currently unemployed due to coronavirus),1,1,0,62,17.33333333,-2.333333333,0.165665195,0.563629712,1.865244617,1.013159795,-0.302174689
213,4lsMLrPn,Motor Function,75,5,35,60,Yes to treatment,90,820.71,7,29,35,43,41,43,19,24,7,20,10,19,17,10,14,5,8,8,7,8,6,6,4,5,6,2,2,2,2,1,1,5.625,5.25,6,1,6,4,1,6,2,27,4,2,1,7,1,1,1,1,1,2,76000,English,15,Group fitness instructor (currently unemployed due to coronavirus),1,1,0,63,-27.66666667,2.666666667,0.165665195,0.563629712,1.865244617,1.013159795,-0.302174689
214,4lsMLrPn,Motor Function,75,10,30,60,Yes to treatment,77,3611.155,3,29,35,43,41,43,19,24,7,20,10,19,17,10,14,5,8,8,7,8,6,6,4,5,6,2,2,2,2,1,1,5.625,5.25,6,1,6,4,1,6,2,27,4,2,1,7,1,1,1,1,1,2,76000,English,15,Group fitness instructor (currently unemployed due to coronavirus),1,1,0,64,-22.66666667,-2.333333333,0.165665195,0.563629712,1.865244617,1.013159795,-0.302174689
215,4lsMLrPn,Motor Function,75,25,55,20,Yes to treatment,77,633.025,2.2,29,35,43,41,43,19,24,7,20,10,19,17,10,14,5,8,8,7,8,6,6,4,5,6,2,2,2,2,1,1,5.625,5.25,6,1,6,4,1,6,2,27,4,2,1,7,1,1,1,1,1,2,76000,English,15,Group fitness instructor (currently unemployed due to coronavirus),1,1,0,65,-7.666666667,22.66666667,0.165665195,0.563629712,1.865244617,1.013159795,-0.302174689
216,4lsMLrPn,Motor Function,75,50,15,35,No to treatment,77,809.635,0.3,29,35,43,41,43,19,24,7,20,10,19,17,10,14,5,8,8,7,8,6,6,4,5,6,2,2,2,2,1,1,5.625,5.25,6,1,6,4,1,6,2,27,4,2,1,7,1,1,1,1,1,2,76000,English,15,Group fitness instructor (currently unemployed due to coronavirus),1,1,0,66,17.33333333,-17.33333333,0.165665195,0.563629712,1.865244617,1.013159795,-0.302174689
217,4lsMLrPn,Motor Function,75,30,10,60,No to treatment,90,660.415,0.333333333,29,35,43,41,43,19,24,7,20,10,19,17,10,14,5,8,8,7,8,6,6,4,5,6,2,2,2,2,1,1,5.625,5.25,6,1,6,4,1,6,2,27,4,2,1,7,1,1,1,1,1,2,76000,English,15,Group fitness instructor (currently unemployed due to coronavirus),1,1,0,67,-2.666666667,-22.33333333,0.165665195,0.563629712,1.865244617,1.013159795,-0.302174689
218,4lsMLrPn,Motor Function,75,25,15,60,No to treatment,90,2045.29,0.6,29,35,43,41,43,19,24,7,20,10,19,17,10,14,5,8,8,7,8,6,6,4,5,6,2,2,2,2,1,1,5.625,5.25,6,1,6,4,1,6,2,27,4,2,1,7,1,1,1,1,1,2,76000,English,15,Group fitness instructor (currently unemployed due to coronavirus),1,1,0,68,-7.666666667,-17.33333333,0.165665195,0.563629712,1.865244617,1.013159795,-0.302174689
219,4lsMLrPn,Motor Function,75,15,60,25,Yes to treatment,77,507.075,4,29,35,43,41,43,19,24,7,20,10,19,17,10,14,5,8,8,7,8,6,6,4,5,6,2,2,2,2,1,1,5.625,5.25,6,1,6,4,1,6,2,27,4,2,1,7,1,1,1,1,1,2,76000,English,15,Group fitness instructor (currently unemployed due to coronavirus),1,1,0,69,-17.66666667,27.66666667,0.165665195,0.563629712,1.865244617,1.013159795,-0.302174689
220,4lsMLrPn,Motor Function,75,35,40,25,Yes to treatment,90,918.765,1.142857143,29,35,43,41,43,19,24,7,20,10,19,17,10,14,5,8,8,7,8,6,6,4,5,6,2,2,2,2,1,1,5.625,5.25,6,1,6,4,1,6,2,27,4,2,1,7,1,1,1,1,1,2,76000,English,15,Group fitness instructor (currently unemployed due to coronavirus),1,1,0,70,2.333333333,7.666666667,0.165665195,0.563629712,1.865244617,1.013159795,-0.302174689
221,4lsMLrPn,Motor Function,75,15,70,15,Yes to treatment,90,895.66,4.666666667,29,35,43,41,43,19,24,7,20,10,19,17,10,14,5,8,8,7,8,6,6,4,5,6,2,2,2,2,1,1,5.625,5.25,6,1,6,4,1,6,2,27,4,2,1,7,1,1,1,1,1,2,76000,English,15,Group fitness instructor (currently unemployed due to coronavirus),1,1,0,71,-17.66666667,37.66666667,0.165665195,0.563629712,1.865244617,1.013159795,-0.302174689
222,4lsMLrPn,Motor Function,75,35,10,55,No to treatment,77,830.85,0.285714286,29,35,43,41,43,19,24,7,20,10,19,17,10,14,5,8,8,7,8,6,6,4,5,6,2,2,2,2,1,1,5.625,5.25,6,1,6,4,1,6,2,27,4,2,1,7,1,1,1,1,1,2,76000,English,15,Group fitness instructor (currently unemployed due to coronavirus),1,1,0,72,2.333333333,-22.33333333,0.165665195,0.563629712,1.865244617,1.013159795,-0.302174689
223,4lsMLrPn,Motor Function,75,10,55,35,Yes to treatment,77,583.215,5.5,29,35,43,41,43,19,24,7,20,10,19,17,10,14,5,8,8,7,8,6,6,4,5,6,2,2,2,2,1,1,5.625,5.25,6,1,6,4,1,6,2,27,4,2,1,7,1,1,1,1,1,2,76000,English,15,Group fitness instructor (currently unemployed due to coronavirus),1,1,0,73,-22.66666667,22.66666667,0.165665195,0.563629712,1.865244617,1.013159795,-0.302174689
224,4lsMLrPn,Motor Function,75,15,5,80,No to treatment,77,841.81,0.333333333,29,35,43,41,43,19,24,7,20,10,19,17,10,14,5,8,8,7,8,6,6,4,5,6,2,2,2,2,1,1,5.625,5.25,6,1,6,4,1,6,2,27,4,2,1,7,1,1,1,1,1,2,76000,English,15,Group fitness instructor (currently unemployed due to coronavirus),1,1,0,74,-17.66666667,-27.33333333,0.165665195,0.563629712,1.865244617,1.013159795,-0.302174689
225,4lsMLrPn,Motor Function,75,30,40,30,Yes to treatment,77,1153.9,1.333333333,29,35,43,41,43,19,24,7,20,10,19,17,10,14,5,8,8,7,8,6,6,4,5,6,2,2,2,2,1,1,5.625,5.25,6,1,6,4,1,6,2,27,4,2,1,7,1,1,1,1,1,2,76000,English,15,Group fitness instructor (currently unemployed due to coronavirus),1,1,0,75,-2.666666667,7.666666667,0.165665195,0.563629712,1.865244617,1.013159795,-0.302174689
226,8huJxZZ7,Self-control,75,60,15,25,No to treatment,90,930.335,0.25,38,40,42,34,33,26,23,18,16,4,19,19,26,8,0,8,3,6,6,5,7,4,5,4,3,3,1,3,1,1,5.25,5.5,5,3,1,6,5,2,2,53,2,2,1,1,3,3,1,6,3,2,15500,psychology/law,15,remote worker,3,1,0,1,22.26666667,-16,0.27794912,0.947116646,0.998415705,0.999011251,-0.948619539
227,8huJxZZ7,Self-control,75,60,5,35,No to treatment,90,742.64,0.083333333,38,40,42,34,33,26,23,18,16,4,19,19,26,8,0,8,3,6,6,5,7,4,5,4,3,3,1,3,1,1,5.25,5.5,5,3,1,6,5,2,2,53,2,2,1,1,3,3,1,6,3,2,15500,psychology/law,15,remote worker,3,1,0,2,22.26666667,-26,0.27794912,0.947116646,0.998415705,0.999011251,-0.948619539
228,8huJxZZ7,Self-control,75,45,35,20,No to treatment,90,768.6,0.777777778,38,40,42,34,33,26,23,18,16,4,19,19,26,8,0,8,3,6,6,5,7,4,5,4,3,3,1,3,1,1,5.25,5.5,5,3,1,6,5,2,2,53,2,2,1,1,3,3,1,6,3,2,15500,psychology/law,15,remote worker,3,1,0,3,7.266666667,4,0.27794912,0.947116646,0.998415705,0.999011251,-0.948619539
229,8huJxZZ7,Self-control,75,65,10,25,No to treatment,90,1155.775,0.153846154,38,40,42,34,33,26,23,18,16,4,19,19,26,8,0,8,3,6,6,5,7,4,5,4,3,3,1,3,1,1,5.25,5.5,5,3,1,6,5,2,2,53,2,2,1,1,3,3,1,6,3,2,15500,psychology/law,15,remote worker,3,1,0,4,27.26666667,-21,0.27794912,0.947116646,0.998415705,0.999011251,-0.948619539
230,8huJxZZ7,Self-control,75,65,20,15,No to treatment,90,1345.165,0.307692308,38,40,42,34,33,26,23,18,16,4,19,19,26,8,0,8,3,6,6,5,7,4,5,4,3,3,1,3,1,1,5.25,5.5,5,3,1,6,5,2,2,53,2,2,1,1,3,3,1,6,3,2,15500,psychology/law,15,remote worker,3,1,0,5,27.26666667,-11,0.27794912,0.947116646,0.998415705,0.999011251,-0.948619539
231,8huJxZZ7,Self-control,75,10,15,75,Yes to treatment,90,1281.7,1.5,38,40,42,34,33,26,23,18,16,4,19,19,26,8,0,8,3,6,6,5,7,4,5,4,3,3,1,3,1,1,5.25,5.5,5,3,1,6,5,2,2,53,2,2,1,1,3,3,1,6,3,2,15500,psychology/law,15,remote worker,3,1,0,6,-27.73333333,-16,0.27794912,0.947116646,0.998415705,0.999011251,-0.948619539
232,8huJxZZ7,Self-control,75,50,30,20,No to treatment,90,1366.89,0.6,38,40,42,34,33,26,23,18,16,4,19,19,26,8,0,8,3,6,6,5,7,4,5,4,3,3,1,3,1,1,5.25,5.5,5,3,1,6,5,2,2,53,2,2,1,1,3,3,1,6,3,2,15500,psychology/law,15,remote worker,3,1,0,7,12.26666667,-1,0.27794912,0.947116646,0.998415705,0.999011251,-0.948619539
233,8huJxZZ7,Self-control,75,30,45,25,No to treatment,77,1480.46,1.5,38,40,42,34,33,26,23,18,16,4,19,19,26,8,0,8,3,6,6,5,7,4,5,4,3,3,1,3,1,1,5.25,5.5,5,3,1,6,5,2,2,53,2,2,1,1,3,3,1,6,3,2,15500,psychology/law,15,remote worker,3,1,0,8,-7.733333333,14,0.27794912,0.947116646,0.998415705,0.999011251,-0.948619539
234,8huJxZZ7,Self-control,75,25,55,20,No to treatment,90,959.3,2.2,38,40,42,34,33,26,23,18,16,4,19,19,26,8,0,8,3,6,6,5,7,4,5,4,3,3,1,3,1,1,5.25,5.5,5,3,1,6,5,2,2,53,2,2,1,1,3,3,1,6,3,2,15500,psychology/law,15,remote worker,3,1,0,9,-12.73333333,24,0.27794912,0.947116646,0.998415705,0.999011251,-0.948619539
235,8huJxZZ7,Self-control,75,60,5,35,No to treatment,90,987.135,0.083333333,38,40,42,34,33,26,23,18,16,4,19,19,26,8,0,8,3,6,6,5,7,4,5,4,3,3,1,3,1,1,5.25,5.5,5,3,1,6,5,2,2,53,2,2,1,1,3,3,1,6,3,2,15500,psychology/law,15,remote worker,3,1,0,10,22.26666667,-26,0.27794912,0.947116646,0.998415705,0.999011251,-0.948619539
236,8huJxZZ7,Self-control,75,20,70,10,No to treatment,77,2018.14,3.5,38,40,42,34,33,26,23,18,16,4,19,19,26,8,0,8,3,6,6,5,7,4,5,4,3,3,1,3,1,1,5.25,5.5,5,3,1,6,5,2,2,53,2,2,1,1,3,3,1,6,3,2,15500,psychology/law,15,remote worker,3,1,0,11,-17.73333333,39,0.27794912,0.947116646,0.998415705,0.999011251,-0.948619539
237,8huJxZZ7,Self-control,75,5,80,15,Yes to treatment,77,932.29,16,38,40,42,34,33,26,23,18,16,4,19,19,26,8,0,8,3,6,6,5,7,4,5,4,3,3,1,3,1,1,5.25,5.5,5,3,1,6,5,2,2,53,2,2,1,1,3,3,1,6,3,2,15500,psychology/law,15,remote worker,3,1,0,12,-32.73333333,49,0.27794912,0.947116646,0.998415705,0.999011251,-0.948619539
238,8huJxZZ7,Self-control,75,5,50,45,Yes to treatment,90,1619.62,10,38,40,42,34,33,26,23,18,16,4,19,19,26,8,0,8,3,6,6,5,7,4,5,4,3,3,1,3,1,1,5.25,5.5,5,3,1,6,5,2,2,53,2,2,1,1,3,3,1,6,3,2,15500,psychology/law,15,remote worker,3,1,0,13,-32.73333333,19,0.27794912,0.947116646,0.998415705,0.999011251,-0.948619539
239,8huJxZZ7,Self-control,75,20,70,10,No to treatment,77,1630.665,3.5,38,40,42,34,33,26,23,18,16,4,19,19,26,8,0,8,3,6,6,5,7,4,5,4,3,3,1,3,1,1,5.25,5.5,5,3,1,6,5,2,2,53,2,2,1,1,3,3,1,6,3,2,15500,psychology/law,15,remote worker,3,1,0,14,-17.73333333,39,0.27794912,0.947116646,0.998415705,0.999011251,-0.948619539
240,8huJxZZ7,Self-control,75,55,35,10,No to treatment,90,2593.245,0.636363636,38,40,42,34,33,26,23,18,16,4,19,19,26,8,0,8,3,6,6,5,7,4,5,4,3,3,1,3,1,1,5.25,5.5,5,3,1,6,5,2,2,53,2,2,1,1,3,3,1,6,3,2,15500,psychology/law,15,remote worker,3,1,0,15,17.26666667,4,0.27794912,0.947116646,0.998415705,0.999011251,-0.948619539
241,8huJxZZ7,Self-control,75,20,75,5,Yes to treatment,77,830.34,3.75,38,40,42,34,33,26,23,18,16,4,19,19,26,8,0,8,3,6,6,5,7,4,5,4,3,3,1,3,1,1,5.25,5.5,5,3,1,6,5,2,2,53,2,2,1,1,3,3,1,6,3,2,15500,psychology/law,15,remote worker,3,1,0,16,-17.73333333,44,0.27794912,0.947116646,0.998415705,0.999011251,-0.948619539
242,8huJxZZ7,Self-control,75,20,40,40,No to treatment,77,1418.25,2,38,40,42,34,33,26,23,18,16,4,19,19,26,8,0,8,3,6,6,5,7,4,5,4,3,3,1,3,1,1,5.25,5.5,5,3,1,6,5,2,2,53,2,2,1,1,3,3,1,6,3,2,15500,psychology/law,15,remote worker,3,1,0,17,-17.73333333,9,0.27794912,0.947116646,0.998415705,0.999011251,-0.948619539
243,8huJxZZ7,Self-control,75,15,35,50,Yes to treatment,77,1656.38,2.333333333,38,40,42,34,33,26,23,18,16,4,19,19,26,8,0,8,3,6,6,5,7,4,5,4,3,3,1,3,1,1,5.25,5.5,5,3,1,6,5,2,2,53,2,2,1,1,3,3,1,6,3,2,15500,psychology/law,15,remote worker,3,1,0,18,-22.73333333,4,0.27794912,0.947116646,0.998415705,0.999011251,-0.948619539
244,8huJxZZ7,Self-control,75,70,10,20,Yes to treatment,90,818.88,0.142857143,38,40,42,34,33,26,23,18,16,4,19,19,26,8,0,8,3,6,6,5,7,4,5,4,3,3,1,3,1,1,5.25,5.5,5,3,1,6,5,2,2,53,2,2,1,1,3,3,1,6,3,2,15500,psychology/law,15,remote worker,3,1,0,19,32.26666667,-21,0.27794912,0.947116646,0.998415705,0.999011251,-0.948619539
245,8huJxZZ7,Self-control,75,40,20,40,No to treatment,77,1420.145,0.5,38,40,42,34,33,26,23,18,16,4,19,19,26,8,0,8,3,6,6,5,7,4,5,4,3,3,1,3,1,1,5.25,5.5,5,3,1,6,5,2,2,53,2,2,1,1,3,3,1,6,3,2,15500,psychology/law,15,remote worker,3,1,0,20,2.266666667,-11,0.27794912,0.947116646,0.998415705,0.999011251,-0.948619539
246,8huJxZZ7,Self-control,75,40,10,50,Yes to treatment,77,1306.855,0.25,38,40,42,34,33,26,23,18,16,4,19,19,26,8,0,8,3,6,6,5,7,4,5,4,3,3,1,3,1,1,5.25,5.5,5,3,1,6,5,2,2,53,2,2,1,1,3,3,1,6,3,2,15500,psychology/law,15,remote worker,3,1,0,21,2.266666667,-21,0.27794912,0.947116646,0.998415705,0.999011251,-0.948619539
247,8huJxZZ7,Self-control,75,40,50,10,No to treatment,90,1232.23,1.25,38,40,42,34,33,26,23,18,16,4,19,19,26,8,0,8,3,6,6,5,7,4,5,4,3,3,1,3,1,1,5.25,5.5,5,3,1,6,5,2,2,53,2,2,1,1,3,3,1,6,3,2,15500,psychology/law,15,remote worker,3,1,0,22,2.266666667,19,0.27794912,0.947116646,0.998415705,0.999011251,-0.948619539
248,8huJxZZ7,Self-control,75,15,15,70,Yes to treatment,77,2018.525,1,38,40,42,34,33,26,23,18,16,4,19,19,26,8,0,8,3,6,6,5,7,4,5,4,3,3,1,3,1,1,5.25,5.5,5,3,1,6,5,2,2,53,2,2,1,1,3,3,1,6,3,2,15500,psychology/law,15,remote worker,3,1,0,23,-22.73333333,-16,0.27794912,0.947116646,0.998415705,0.999011251,-0.948619539
249,8huJxZZ7,Self-control,75,10,10,80,No to treatment,90,1017.725,1,38,40,42,34,33,26,23,18,16,4,19,19,26,8,0,8,3,6,6,5,7,4,5,4,3,3,1,3,1,1,5.25,5.5,5,3,1,6,5,2,2,53,2,2,1,1,3,3,1,6,3,2,15500,psychology/law,15,remote worker,3,1,0,24,-27.73333333,-21,0.27794912,0.947116646,0.998415705,0.999011251,-0.948619539
250,8huJxZZ7,Self-control,75,5,60,35,No to treatment,90,1057.345,12,38,40,42,34,33,26,23,18,16,4,19,19,26,8,0,8,3,6,6,5,7,4,5,4,3,3,1,3,1,1,5.25,5.5,5,3,1,6,5,2,2,53,2,2,1,1,3,3,1,6,3,2,15500,psychology/law,15,remote worker,3,1,0,25,-32.73333333,29,0.27794912,0.947116646,0.998415705,0.999011251,-0.948619539
251,8huJxZZ7,Self-control,75,35,45,20,No to treatment,77,1018.505,1.285714286,38,40,42,34,33,26,23,18,16,4,19,19,26,8,0,8,3,6,6,5,7,4,5,4,3,3,1,3,1,1,5.25,5.5,5,3,1,6,5,2,2,53,2,2,1,1,3,3,1,6,3,2,15500,psychology/law,15,remote worker,3,1,0,26,-2.733333333,14,0.27794912,0.947116646,0.998415705,0.999011251,-0.948619539
252,8huJxZZ7,Self-control,75,25,45,30,No to treatment,90,1031.255,1.8,38,40,42,34,33,26,23,18,16,4,19,19,26,8,0,8,3,6,6,5,7,4,5,4,3,3,1,3,1,1,5.25,5.5,5,3,1,6,5,2,2,53,2,2,1,1,3,3,1,6,3,2,15500,psychology/law,15,remote worker,3,1,0,27,-12.73333333,14,0.27794912,0.947116646,0.998415705,0.999011251,-0.948619539
253,8huJxZZ7,Self-control,75,20,20,60,No to treatment,77,857.04,1,38,40,42,34,33,26,23,18,16,4,19,19,26,8,0,8,3,6,6,5,7,4,5,4,3,3,1,3,1,1,5.25,5.5,5,3,1,6,5,2,2,53,2,2,1,1,3,3,1,6,3,2,15500,psychology/law,15,remote worker,3,1,0,28,-17.73333333,-11,0.27794912,0.947116646,0.998415705,0.999011251,-0.948619539
254,8huJxZZ7,Self-control,75,55,25,20,No to treatment,77,944.705,0.454545455,38,40,42,34,33,26,23,18,16,4,19,19,26,8,0,8,3,6,6,5,7,4,5,4,3,3,1,3,1,1,5.25,5.5,5,3,1,6,5,2,2,53,2,2,1,1,3,3,1,6,3,2,15500,psychology/law,15,remote worker,3,1,0,29,17.26666667,-6,0.27794912,0.947116646,0.998415705,0.999011251,-0.948619539
255,8huJxZZ7,Self-control,75,25,45,30,Yes to treatment,90,990.335,1.8,38,40,42,34,33,26,23,18,16,4,19,19,26,8,0,8,3,6,6,5,7,4,5,4,3,3,1,3,1,1,5.25,5.5,5,3,1,6,5,2,2,53,2,2,1,1,3,3,1,6,3,2,15500,psychology/law,15,remote worker,3,1,0,30,-12.73333333,14,0.27794912,0.947116646,0.998415705,0.999011251,-0.948619539
256,8huJxZZ7,Self-control,75,25,35,40,Yes to treatment,77,857.09,1.4,38,40,42,34,33,26,23,18,16,4,19,19,26,8,0,8,3,6,6,5,7,4,5,4,3,3,1,3,1,1,5.25,5.5,5,3,1,6,5,2,2,53,2,2,1,1,3,3,1,6,3,2,15500,psychology/law,15,remote worker,3,1,0,31,-12.73333333,4,0.27794912,0.947116646,0.998415705,0.999011251,-0.948619539
257,8huJxZZ7,Self-control,75,35,40,25,No to treatment,90,944.56,1.142857143,38,40,42,34,33,26,23,18,16,4,19,19,26,8,0,8,3,6,6,5,7,4,5,4,3,3,1,3,1,1,5.25,5.5,5,3,1,6,5,2,2,53,2,2,1,1,3,3,1,6,3,2,15500,psychology/law,15,remote worker,3,1,0,32,-2.733333333,9,0.27794912,0.947116646,0.998415705,0.999011251,-0.948619539
258,8huJxZZ7,Self-control,75,65,30,5,No to treatment,77,792.205,0.461538462,38,40,42,34,33,26,23,18,16,4,19,19,26,8,0,8,3,6,6,5,7,4,5,4,3,3,1,3,1,1,5.25,5.5,5,3,1,6,5,2,2,53,2,2,1,1,3,3,1,6,3,2,15500,psychology/law,15,remote worker,3,1,0,33,27.26666667,-1,0.27794912,0.947116646,0.998415705,0.999011251,-0.948619539
259,8huJxZZ7,Self-control,75,35,60,5,Yes to treatment,90,606.345,1.714285714,38,40,42,34,33,26,23,18,16,4,19,19,26,8,0,8,3,6,6,5,7,4,5,4,3,3,1,3,1,1,5.25,5.5,5,3,1,6,5,2,2,53,2,2,1,1,3,3,1,6,3,2,15500,psychology/law,15,remote worker,3,1,0,34,-2.733333333,29,0.27794912,0.947116646,0.998415705,0.999011251,-0.948619539
260,8huJxZZ7,Self-control,75,70,10,20,No to treatment,77,919.175,0.142857143,38,40,42,34,33,26,23,18,16,4,19,19,26,8,0,8,3,6,6,5,7,4,5,4,3,3,1,3,1,1,5.25,5.5,5,3,1,6,5,2,2,53,2,2,1,1,3,3,1,6,3,2,15500,psychology/law,15,remote worker,3,1,0,35,32.26666667,-21,0.27794912,0.947116646,0.998415705,0.999011251,-0.948619539
261,8huJxZZ7,Self-control,75,25,5,70,No to treatment,90,921.45,0.2,38,40,42,34,33,26,23,18,16,4,19,19,26,8,0,8,3,6,6,5,7,4,5,4,3,3,1,3,1,1,5.25,5.5,5,3,1,6,5,2,2,53,2,2,1,1,3,3,1,6,3,2,15500,psychology/law,15,remote worker,3,1,0,36,-12.73333333,-26,0.27794912,0.947116646,0.998415705,0.999011251,-0.948619539
262,8huJxZZ7,Self-control,75,20,5,75,No to treatment,90,857.265,0.25,38,40,42,34,33,26,23,18,16,4,19,19,26,8,0,8,3,6,6,5,7,4,5,4,3,3,1,3,1,1,5.25,5.5,5,3,1,6,5,2,2,53,2,2,1,1,3,3,1,6,3,2,15500,psychology/law,15,remote worker,3,1,0,37,-17.73333333,-26,0.27794912,0.947116646,0.998415705,0.999011251,-0.948619539
263,8huJxZZ7,Self-control,75,15,5,80,No to treatment,90,12174.72,0.333333333,38,40,42,34,33,26,23,18,16,4,19,19,26,8,0,8,3,6,6,5,7,4,5,4,3,3,1,3,1,1,5.25,5.5,5,3,1,6,5,2,2,53,2,2,1,1,3,3,1,6,3,2,15500,psychology/law,15,remote worker,3,1,0,38,-22.73333333,-26,0.27794912,0.947116646,0.998415705,0.999011251,-0.948619539
264,8huJxZZ7,Self-control,75,25,70,5,No to treatment,77,3756.53,2.8,38,40,42,34,33,26,23,18,16,4,19,19,26,8,0,8,3,6,6,5,7,4,5,4,3,3,1,3,1,1,5.25,5.5,5,3,1,6,5,2,2,53,2,2,1,1,3,3,1,6,3,2,15500,psychology/law,15,remote worker,3,1,0,39,-12.73333333,39,0.27794912,0.947116646,0.998415705,0.999011251,-0.948619539
265,8huJxZZ7,Self-control,75,60,20,20,No to treatment,77,3467.885,0.333333333,38,40,42,34,33,26,23,18,16,4,19,19,26,8,0,8,3,6,6,5,7,4,5,4,3,3,1,3,1,1,5.25,5.5,5,3,1,6,5,2,2,53,2,2,1,1,3,3,1,6,3,2,15500,psychology/law,15,remote worker,3,1,0,40,22.26666667,-11,0.27794912,0.947116646,0.998415705,0.999011251,-0.948619539
266,8huJxZZ7,Self-control,75,20,70,10,No to treatment,90,644.415,3.5,38,40,42,34,33,26,23,18,16,4,19,19,26,8,0,8,3,6,6,5,7,4,5,4,3,3,1,3,1,1,5.25,5.5,5,3,1,6,5,2,2,53,2,2,1,1,3,3,1,6,3,2,15500,psychology/law,15,remote worker,3,1,0,41,-17.73333333,39,0.27794912,0.947116646,0.998415705,0.999011251,-0.948619539
267,8huJxZZ7,Self-control,75,35,5,60,No to treatment,77,1530.255,0.142857143,38,40,42,34,33,26,23,18,16,4,19,19,26,8,0,8,3,6,6,5,7,4,5,4,3,3,1,3,1,1,5.25,5.5,5,3,1,6,5,2,2,53,2,2,1,1,3,3,1,6,3,2,15500,psychology/law,15,remote worker,3,1,0,42,-2.733333333,-26,0.27794912,0.947116646,0.998415705,0.999011251,-0.948619539
268,8huJxZZ7,Self-control,75,25,15,60,No to treatment,90,1393.705,0.6,38,40,42,34,33,26,23,18,16,4,19,19,26,8,0,8,3,6,6,5,7,4,5,4,3,3,1,3,1,1,5.25,5.5,5,3,1,6,5,2,2,53,2,2,1,1,3,3,1,6,3,2,15500,psychology/law,15,remote worker,3,1,0,43,-12.73333333,-16,0.27794912,0.947116646,0.998415705,0.999011251,-0.948619539
269,8huJxZZ7,Self-control,75,50,25,25,No to treatment,77,855.84,0.5,38,40,42,34,33,26,23,18,16,4,19,19,26,8,0,8,3,6,6,5,7,4,5,4,3,3,1,3,1,1,5.25,5.5,5,3,1,6,5,2,2,53,2,2,1,1,3,3,1,6,3,2,15500,psychology/law,15,remote worker,3,1,0,44,12.26666667,-6,0.27794912,0.947116646,0.998415705,0.999011251,-0.948619539
270,8huJxZZ7,Self-control,75,50,35,15,No to treatment,90,931.67,0.7,38,40,42,34,33,26,23,18,16,4,19,19,26,8,0,8,3,6,6,5,7,4,5,4,3,3,1,3,1,1,5.25,5.5,5,3,1,6,5,2,2,53,2,2,1,1,3,3,1,6,3,2,15500,psychology/law,15,remote worker,3,1,0,45,12.26666667,4,0.27794912,0.947116646,0.998415705,0.999011251,-0.948619539
271,8huJxZZ7,Self-control,75,10,40,50,Yes to treatment,77,767.08,4,38,40,42,34,33,26,23,18,16,4,19,19,26,8,0,8,3,6,6,5,7,4,5,4,3,3,1,3,1,1,5.25,5.5,5,3,1,6,5,2,2,53,2,2,1,1,3,3,1,6,3,2,15500,psychology/law,15,remote worker,3,1,0,46,-27.73333333,9,0.27794912,0.947116646,0.998415705,0.999011251,-0.948619539
272,8huJxZZ7,Self-control,75,45,15,40,No to treatment,77,1020.295,0.333333333,38,40,42,34,33,26,23,18,16,4,19,19,26,8,0,8,3,6,6,5,7,4,5,4,3,3,1,3,1,1,5.25,5.5,5,3,1,6,5,2,2,53,2,2,1,1,3,3,1,6,3,2,15500,psychology/law,15,remote worker,3,1,0,47,7.266666667,-16,0.27794912,0.947116646,0.998415705,0.999011251,-0.948619539
273,8huJxZZ7,Self-control,75,70,5,25,No to treatment,77,1032.185,0.071428571,38,40,42,34,33,26,23,18,16,4,19,19,26,8,0,8,3,6,6,5,7,4,5,4,3,3,1,3,1,1,5.25,5.5,5,3,1,6,5,2,2,53,2,2,1,1,3,3,1,6,3,2,15500,psychology/law,15,remote worker,3,1,0,48,32.26666667,-26,0.27794912,0.947116646,0.998415705,0.999011251,-0.948619539
274,8huJxZZ7,Self-control,75,20,45,35,Yes to treatment,77,882.13,2.25,38,40,42,34,33,26,23,18,16,4,19,19,26,8,0,8,3,6,6,5,7,4,5,4,3,3,1,3,1,1,5.25,5.5,5,3,1,6,5,2,2,53,2,2,1,1,3,3,1,6,3,2,15500,psychology/law,15,remote worker,3,1,0,49,-17.73333333,14,0.27794912,0.947116646,0.998415705,0.999011251,-0.948619539
275,8huJxZZ7,Self-control,75,55,15,30,No to treatment,77,1016.985,0.272727273,38,40,42,34,33,26,23,18,16,4,19,19,26,8,0,8,3,6,6,5,7,4,5,4,3,3,1,3,1,1,5.25,5.5,5,3,1,6,5,2,2,53,2,2,1,1,3,3,1,6,3,2,15500,psychology/law,15,remote worker,3,1,0,50,17.26666667,-16,0.27794912,0.947116646,0.998415705,0.999011251,-0.948619539
276,8huJxZZ7,Self-control,75,45,20,35,No to treatment,90,768.28,0.444444444,38,40,42,34,33,26,23,18,16,4,19,19,26,8,0,8,3,6,6,5,7,4,5,4,3,3,1,3,1,1,5.25,5.5,5,3,1,6,5,2,2,53,2,2,1,1,3,3,1,6,3,2,15500,psychology/law,15,remote worker,3,1,0,51,7.266666667,-11,0.27794912,0.947116646,0.998415705,0.999011251,-0.948619539
277,8huJxZZ7,Self-control,75,20,55,25,Yes to treatment,90,970.345,2.75,38,40,42,34,33,26,23,18,16,4,19,19,26,8,0,8,3,6,6,5,7,4,5,4,3,3,1,3,1,1,5.25,5.5,5,3,1,6,5,2,2,53,2,2,1,1,3,3,1,6,3,2,15500,psychology/law,15,remote worker,3,1,0,52,-17.73333333,24,0.27794912,0.947116646,0.998415705,0.999011251,-0.948619539
278,8huJxZZ7,Self-control,75,45,50,5,Yes to treatment,77,1084.17,1.111111111,38,40,42,34,33,26,23,18,16,4,19,19,26,8,0,8,3,6,6,5,7,4,5,4,3,3,1,3,1,1,5.25,5.5,5,3,1,6,5,2,2,53,2,2,1,1,3,3,1,6,3,2,15500,psychology/law,15,remote worker,3,1,0,53,7.266666667,19,0.27794912,0.947116646,0.998415705,0.999011251,-0.948619539
279,8huJxZZ7,Self-control,75,10,50,40,Yes to treatment,77,970.11,5,38,40,42,34,33,26,23,18,16,4,19,19,26,8,0,8,3,6,6,5,7,4,5,4,3,3,1,3,1,1,5.25,5.5,5,3,1,6,5,2,2,53,2,2,1,1,3,3,1,6,3,2,15500,psychology/law,15,remote worker,3,1,0,54,-27.73333333,19,0.27794912,0.947116646,0.998415705,0.999011251,-0.948619539
280,8huJxZZ7,Self-control,75,30,65,5,No to treatment,77,780.975,2.166666667,38,40,42,34,33,26,23,18,16,4,19,19,26,8,0,8,3,6,6,5,7,4,5,4,3,3,1,3,1,1,5.25,5.5,5,3,1,6,5,2,2,53,2,2,1,1,3,3,1,6,3,2,15500,psychology/law,15,remote worker,3,1,0,55,-7.733333333,34,0.27794912,0.947116646,0.998415705,0.999011251,-0.948619539
