"","user_id","condition","total_trials","risk","gain","no_effect","experimental_treatment_selected","key_press","rt","ratio","Extraversion","Agreeableness","Conscientiousness","Negative_Emotionality","Open_Mindedness","Harm","Fairness","Loyalty","Athority","Sancticy","sex","age_4","race_ethnicity","education","Q1538","Q1539","Q1540","Q1541","Q1542","Q1543","Q1544","Q1545","income","Q1547","Q1567","Q1548","political_aff","Q1550","Q1551","trial_index","risk_c","gain_c","Risk_Beta","Gain_Beta","Interaction","lambda"
"1","01rSsifR","Mood",75,45,50,5,"No to treatment",90,3474.27500000049,1.11111111111111,39,37,38,39,43,23,24,13,20,16,"2",29,1,2,1,1,2,3,3,6,4,2,"41000","Business Management","15","Project Manager - Information",1,1,0,"1",-0.799999999999997,22.6,-0.206866797591081,0.10797258228388,-0.0115950050735494,1.91591970123666
"2","01rSsifR","Mood",75,85,5,10,"No to treatment",90,690.744999999879,0.0588235294117647,39,37,38,39,43,23,24,13,20,16,"2",29,1,2,1,1,2,3,3,6,4,2,"41000","Business Management","15","Project Manager - Information",1,1,0,"2",39.2,-22.4,-0.206866797591081,0.10797258228388,-0.0115950050735494,1.91591970123666
"3","01rSsifR","Mood",75,80,5,15,"No to treatment",90,594.010000000708,0.0625,39,37,38,39,43,23,24,13,20,16,"2",29,1,2,1,1,2,3,3,6,4,2,"41000","Business Management","15","Project Manager - Information",1,1,0,"3",34.2,-22.4,-0.206866797591081,0.10797258228388,-0.0115950050735494,1.91591970123666
"4","01rSsifR","Mood",75,80,15,5,"No to treatment",77,657.070000001113,0.1875,39,37,38,39,43,23,24,13,20,16,"2",29,1,2,1,1,2,3,3,6,4,2,"41000","Business Management","15","Project Manager - Information",1,1,0,"4",34.2,-12.4,-0.206866797591081,0.10797258228388,-0.0115950050735494,1.91591970123666
"5","01rSsifR","Mood",75,85,5,10,"No to treatment",77,601.350000000792,0.0588235294117647,39,37,38,39,43,23,24,13,20,16,"2",29,1,2,1,1,2,3,3,6,4,2,"41000","Business Management","15","Project Manager - Information",1,1,0,"5",39.2,-22.4,-0.206866797591081,0.10797258228388,-0.0115950050735494,1.91591970123666
"6","01rSsifR","Mood",75,65,30,5,"No to treatment",90,994.02000000191,0.461538461538462,39,37,38,39,43,23,24,13,20,16,"2",29,1,2,1,1,2,3,3,6,4,2,"41000","Business Management","15","Project Manager - Information",1,1,0,"6",19.2,2.6,-0.206866797591081,0.10797258228388,-0.0115950050735494,1.91591970123666
"7","01rSsifR","Mood",75,5,65,30,"Yes to treatment",77,929.390000001149,13,39,37,38,39,43,23,24,13,20,16,"2",29,1,2,1,1,2,3,3,6,4,2,"41000","Business Management","15","Project Manager - Information",1,1,0,"7",-40.8,37.6,-0.206866797591081,0.10797258228388,-0.0115950050735494,1.91591970123666
"8","01rSsifR","Mood",75,10,45,45,"Yes to treatment",90,994.17000000173,4.5,39,37,38,39,43,23,24,13,20,16,"2",29,1,2,1,1,2,3,3,6,4,2,"41000","Business Management","15","Project Manager - Information",1,1,0,"8",-35.8,17.6,-0.206866797591081,0.10797258228388,-0.0115950050735494,1.91591970123666
"9","01rSsifR","Mood",75,40,10,50,"No to treatment",77,738.004999999248,0.25,39,37,38,39,43,23,24,13,20,16,"2",29,1,2,1,1,2,3,3,6,4,2,"41000","Business Management","15","Project Manager - Information",1,1,0,"9",-5.8,-17.4,-0.206866797591081,0.10797258228388,-0.0115950050735494,1.91591970123666
"10","01rSsifR","Mood",75,35,55,10,"Yes to treatment",77,1041.73499999888,1.57142857142857,39,37,38,39,43,23,24,13,20,16,"2",29,1,2,1,1,2,3,3,6,4,2,"41000","Business Management","15","Project Manager - Information",1,1,0,"10",-10.8,27.6,-0.206866797591081,0.10797258228388,-0.0115950050735494,1.91591970123666
"11","01rSsifR","Mood",75,80,15,5,"No to treatment",90,722.050000000279,0.1875,39,37,38,39,43,23,24,13,20,16,"2",29,1,2,1,1,2,3,3,6,4,2,"41000","Business Management","15","Project Manager - Information",1,1,0,"11",34.2,-12.4,-0.206866797591081,0.10797258228388,-0.0115950050735494,1.91591970123666
"12","01rSsifR","Mood",75,15,30,55,"Yes to treatment",77,1281.52999999656,2,39,37,38,39,43,23,24,13,20,16,"2",29,1,2,1,1,2,3,3,6,4,2,"41000","Business Management","15","Project Manager - Information",1,1,0,"12",-30.8,2.6,-0.206866797591081,0.10797258228388,-0.0115950050735494,1.91591970123666
"13","01rSsifR","Mood",75,50,35,15,"No to treatment",90,849.764999999024,0.7,39,37,38,39,43,23,24,13,20,16,"2",29,1,2,1,1,2,3,3,6,4,2,"41000","Business Management","15","Project Manager - Information",1,1,0,"13",4.2,7.6,-0.206866797591081,0.10797258228388,-0.0115950050735494,1.91591970123666
"14","01rSsifR","Mood",75,30,20,50,"No to treatment",77,801.445000000967,0.666666666666667,39,37,38,39,43,23,24,13,20,16,"2",29,1,2,1,1,2,3,3,6,4,2,"41000","Business Management","15","Project Manager - Information",1,1,0,"14",-15.8,-7.4,-0.206866797591081,0.10797258228388,-0.0115950050735494,1.91591970123666
"15","01rSsifR","Mood",75,85,5,10,"No to treatment",77,640.49999999773,0.0588235294117647,39,37,38,39,43,23,24,13,20,16,"2",29,1,2,1,1,2,3,3,6,4,2,"41000","Business Management","15","Project Manager - Information",1,1,0,"15",39.2,-22.4,-0.206866797591081,0.10797258228388,-0.0115950050735494,1.91591970123666
"16","01rSsifR","Mood",75,35,30,35,"No to treatment",90,946.24499999918,0.857142857142857,39,37,38,39,43,23,24,13,20,16,"2",29,1,2,1,1,2,3,3,6,4,2,"41000","Business Management","15","Project Manager - Information",1,1,0,"16",-10.8,2.6,-0.206866797591081,0.10797258228388,-0.0115950050735494,1.91591970123666
"17","01rSsifR","Mood",75,60,10,30,"No to treatment",90,737.744999998511,0.166666666666667,39,37,38,39,43,23,24,13,20,16,"2",29,1,2,1,1,2,3,3,6,4,2,"41000","Business Management","15","Project Manager - Information",1,1,0,"17",14.2,-17.4,-0.206866797591081,0.10797258228388,-0.0115950050735494,1.91591970123666
"18","01rSsifR","Mood",75,5,90,5,"Yes to treatment",90,769.834999999148,18,39,37,38,39,43,23,24,13,20,16,"2",29,1,2,1,1,2,3,3,6,4,2,"41000","Business Management","15","Project Manager - Information",1,1,0,"18",-40.8,62.6,-0.206866797591081,0.10797258228388,-0.0115950050735494,1.91591970123666
"19","01rSsifR","Mood",75,30,25,45,"No to treatment",77,865.819999999076,0.833333333333333,39,37,38,39,43,23,24,13,20,16,"2",29,1,2,1,1,2,3,3,6,4,2,"41000","Business Management","15","Project Manager - Information",1,1,0,"19",-15.8,-2.4,-0.206866797591081,0.10797258228388,-0.0115950050735494,1.91591970123666
"20","01rSsifR","Mood",75,90,5,5,"No to treatment",77,722.444999999425,0.0555555555555556,39,37,38,39,43,23,24,13,20,16,"2",29,1,2,1,1,2,3,3,6,4,2,"41000","Business Management","15","Project Manager - Information",1,1,0,"20",44.2,-22.4,-0.206866797591081,0.10797258228388,-0.0115950050735494,1.91591970123666
"21","01rSsifR","Mood",75,35,40,25,"Yes to treatment",77,849.040000000969,1.14285714285714,39,37,38,39,43,23,24,13,20,16,"2",29,1,2,1,1,2,3,3,6,4,2,"41000","Business Management","15","Project Manager - Information",1,1,0,"21",-10.8,12.6,-0.206866797591081,0.10797258228388,-0.0115950050735494,1.91591970123666
"22","01rSsifR","Mood",75,65,15,20,"No to treatment",90,769.885000001523,0.230769230769231,39,37,38,39,43,23,24,13,20,16,"2",29,1,2,1,1,2,3,3,6,4,2,"41000","Business Management","15","Project Manager - Information",1,1,0,"22",19.2,-12.4,-0.206866797591081,0.10797258228388,-0.0115950050735494,1.91591970123666
"23","01rSsifR","Mood",75,70,20,10,"No to treatment",77,673.77999999735,0.285714285714286,39,37,38,39,43,23,24,13,20,16,"2",29,1,2,1,1,2,3,3,6,4,2,"41000","Business Management","15","Project Manager - Information",1,1,0,"23",24.2,-7.4,-0.206866797591081,0.10797258228388,-0.0115950050735494,1.91591970123666
"24","01rSsifR","Mood",75,65,25,10,"No to treatment",77,529.495000002498,0.384615384615385,39,37,38,39,43,23,24,13,20,16,"2",29,1,2,1,1,2,3,3,6,4,2,"41000","Business Management","15","Project Manager - Information",1,1,0,"24",19.2,-2.4,-0.206866797591081,0.10797258228388,-0.0115950050735494,1.91591970123666
"25","01rSsifR","Mood",75,80,5,15,"No to treatment",77,640.995000001567,0.0625,39,37,38,39,43,23,24,13,20,16,"2",29,1,2,1,1,2,3,3,6,4,2,"41000","Business Management","15","Project Manager - Information",1,1,0,"25",34.2,-22.4,-0.206866797591081,0.10797258228388,-0.0115950050735494,1.91591970123666
"26","01rSsifR","Mood",75,15,75,10,"Yes to treatment",77,1009.45999999749,5,39,37,38,39,43,23,24,13,20,16,"2",29,1,2,1,1,2,3,3,6,4,2,"41000","Business Management","15","Project Manager - Information",1,1,0,"26",-30.8,47.6,-0.206866797591081,0.10797258228388,-0.0115950050735494,1.91591970123666
"27","01rSsifR","Mood",75,10,5,85,"No to treatment",90,1602.04500000327,0.5,39,37,38,39,43,23,24,13,20,16,"2",29,1,2,1,1,2,3,3,6,4,2,"41000","Business Management","15","Project Manager - Information",1,1,0,"27",-35.8,-22.4,-0.206866797591081,0.10797258228388,-0.0115950050735494,1.91591970123666
"28","01rSsifR","Mood",75,5,75,20,"Yes to treatment",77,642.015000001295,15,39,37,38,39,43,23,24,13,20,16,"2",29,1,2,1,1,2,3,3,6,4,2,"41000","Business Management","15","Project Manager - Information",1,1,0,"28",-40.8,47.6,-0.206866797591081,0.10797258228388,-0.0115950050735494,1.91591970123666
"29","01rSsifR","Mood",75,25,45,30,"Yes to treatment",90,881.884999998903,1.8,39,37,38,39,43,23,24,13,20,16,"2",29,1,2,1,1,2,3,3,6,4,2,"41000","Business Management","15","Project Manager - Information",1,1,0,"29",-20.8,17.6,-0.206866797591081,0.10797258228388,-0.0115950050735494,1.91591970123666
"30","01rSsifR","Mood",75,70,5,25,"No to treatment",77,660.195000000414,0.0714285714285714,39,37,38,39,43,23,24,13,20,16,"2",29,1,2,1,1,2,3,3,6,4,2,"41000","Business Management","15","Project Manager - Information",1,1,0,"30",24.2,-22.4,-0.206866797591081,0.10797258228388,-0.0115950050735494,1.91591970123666
"31","01rSsifR","Mood",75,5,45,50,"Yes to treatment",90,737.975000000035,9,39,37,38,39,43,23,24,13,20,16,"2",29,1,2,1,1,2,3,3,6,4,2,"41000","Business Management","15","Project Manager - Information",1,1,0,"31",-40.8,17.6,-0.206866797591081,0.10797258228388,-0.0115950050735494,1.91591970123666
"32","01rSsifR","Mood",75,45,25,30,"No to treatment",90,1505.70000000153,0.555555555555556,39,37,38,39,43,23,24,13,20,16,"2",29,1,2,1,1,2,3,3,6,4,2,"41000","Business Management","15","Project Manager - Information",1,1,0,"32",-0.799999999999997,-2.4,-0.206866797591081,0.10797258228388,-0.0115950050735494,1.91591970123666
"33","01rSsifR","Mood",75,65,30,5,"No to treatment",77,735.810000001919,0.461538461538462,39,37,38,39,43,23,24,13,20,16,"2",29,1,2,1,1,2,3,3,6,4,2,"41000","Business Management","15","Project Manager - Information",1,1,0,"33",19.2,2.6,-0.206866797591081,0.10797258228388,-0.0115950050735494,1.91591970123666
"34","01rSsifR","Mood",75,25,65,10,"Yes to treatment",90,801.634999999835,2.6,39,37,38,39,43,23,24,13,20,16,"2",29,1,2,1,1,2,3,3,6,4,2,"41000","Business Management","15","Project Manager - Information",1,1,0,"34",-20.8,37.6,-0.206866797591081,0.10797258228388,-0.0115950050735494,1.91591970123666
"35","01rSsifR","Mood",75,65,5,30,"No to treatment",90,1170.61000000103,0.0769230769230769,39,37,38,39,43,23,24,13,20,16,"2",29,1,2,1,1,2,3,3,6,4,2,"41000","Business Management","15","Project Manager - Information",1,1,0,"35",19.2,-22.4,-0.206866797591081,0.10797258228388,-0.0115950050735494,1.91591970123666
"36","01rSsifR","Mood",75,45,35,20,"No to treatment",90,962.08000000118,0.777777777777778,39,37,38,39,43,23,24,13,20,16,"2",29,1,2,1,1,2,3,3,6,4,2,"41000","Business Management","15","Project Manager - Information",1,1,0,"36",-0.799999999999997,7.6,-0.206866797591081,0.10797258228388,-0.0115950050735494,1.91591970123666
"37","01rSsifR","Mood",75,45,10,45,"No to treatment",77,722.085000001243,0.222222222222222,39,37,38,39,43,23,24,13,20,16,"2",29,1,2,1,1,2,3,3,6,4,2,"41000","Business Management","15","Project Manager - Information",1,1,0,"37",-0.799999999999997,-17.4,-0.206866797591081,0.10797258228388,-0.0115950050735494,1.91591970123666
"38","01rSsifR","Mood",75,30,55,15,"Yes to treatment",90,576.320000000123,1.83333333333333,39,37,38,39,43,23,24,13,20,16,"2",29,1,2,1,1,2,3,3,6,4,2,"41000","Business Management","15","Project Manager - Information",1,1,0,"38",-15.8,27.6,-0.206866797591081,0.10797258228388,-0.0115950050735494,1.91591970123666
"39","01rSsifR","Mood",75,80,5,15,"No to treatment",90,714.359999998123,0.0625,39,37,38,39,43,23,24,13,20,16,"2",29,1,2,1,1,2,3,3,6,4,2,"41000","Business Management","15","Project Manager - Information",1,1,0,"39",34.2,-22.4,-0.206866797591081,0.10797258228388,-0.0115950050735494,1.91591970123666
"40","01rSsifR","Mood",75,30,40,30,"Yes to treatment",77,1009.8399999988,1.33333333333333,39,37,38,39,43,23,24,13,20,16,"2",29,1,2,1,1,2,3,3,6,4,2,"41000","Business Management","15","Project Manager - Information",1,1,0,"40",-15.8,12.6,-0.206866797591081,0.10797258228388,-0.0115950050735494,1.91591970123666
"41","01rSsifR","Mood",75,25,35,40,"Yes to treatment",77,994.064999998896,1.4,39,37,38,39,43,23,24,13,20,16,"2",29,1,2,1,1,2,3,3,6,4,2,"41000","Business Management","15","Project Manager - Information",1,1,0,"41",-20.8,7.6,-0.206866797591081,0.10797258228388,-0.0115950050735494,1.91591970123666
"42","01rSsifR","Mood",75,50,20,30,"No to treatment",90,882.249999998749,0.4,39,37,38,39,43,23,24,13,20,16,"2",29,1,2,1,1,2,3,3,6,4,2,"41000","Business Management","15","Project Manager - Information",1,1,0,"42",4.2,-7.4,-0.206866797591081,0.10797258228388,-0.0115950050735494,1.91591970123666
"43","01rSsifR","Mood",75,30,20,50,"No to treatment",90,1009.44999999774,0.666666666666667,39,37,38,39,43,23,24,13,20,16,"2",29,1,2,1,1,2,3,3,6,4,2,"41000","Business Management","15","Project Manager - Information",1,1,0,"43",-15.8,-7.4,-0.206866797591081,0.10797258228388,-0.0115950050735494,1.91591970123666
"44","01rSsifR","Mood",75,60,5,35,"No to treatment",77,753.759999999602,0.0833333333333333,39,37,38,39,43,23,24,13,20,16,"2",29,1,2,1,1,2,3,3,6,4,2,"41000","Business Management","15","Project Manager - Information",1,1,0,"44",14.2,-22.4,-0.206866797591081,0.10797258228388,-0.0115950050735494,1.91591970123666
"45","01rSsifR","Mood",75,40,50,10,"No to treatment",77,1345.57500000298,1.25,39,37,38,39,43,23,24,13,20,16,"2",29,1,2,1,1,2,3,3,6,4,2,"41000","Business Management","15","Project Manager - Information",1,1,0,"45",-5.8,22.6,-0.206866797591081,0.10797258228388,-0.0115950050735494,1.91591970123666
"46","01rSsifR","Mood",75,50,15,35,"No to treatment",77,961.880000002566,0.3,39,37,38,39,43,23,24,13,20,16,"2",29,1,2,1,1,2,3,3,6,4,2,"41000","Business Management","15","Project Manager - Information",1,1,0,"46",4.2,-12.4,-0.206866797591081,0.10797258228388,-0.0115950050735494,1.91591970123666
"47","01rSsifR","Mood",75,15,10,75,"No to treatment",90,1393.70500000229,0.666666666666667,39,37,38,39,43,23,24,13,20,16,"2",29,1,2,1,1,2,3,3,6,4,2,"41000","Business Management","15","Project Manager - Information",1,1,0,"47",-30.8,-17.4,-0.206866797591081,0.10797258228388,-0.0115950050735494,1.91591970123666
"48","01rSsifR","Mood",75,75,20,5,"No to treatment",77,945.255000002362,0.266666666666667,39,37,38,39,43,23,24,13,20,16,"2",29,1,2,1,1,2,3,3,6,4,2,"41000","Business Management","15","Project Manager - Information",1,1,0,"48",29.2,-7.4,-0.206866797591081,0.10797258228388,-0.0115950050735494,1.91591970123666
"49","01rSsifR","Mood",75,10,70,20,"Yes to treatment",77,945.475000000442,7,39,37,38,39,43,23,24,13,20,16,"2",29,1,2,1,1,2,3,3,6,4,2,"41000","Business Management","15","Project Manager - Information",1,1,0,"49",-35.8,42.6,-0.206866797591081,0.10797258228388,-0.0115950050735494,1.91591970123666
"50","01rSsifR","Mood",75,75,20,5,"No to treatment",90,706.154999999853,0.266666666666667,39,37,38,39,43,23,24,13,20,16,"2",29,1,2,1,1,2,3,3,6,4,2,"41000","Business Management","15","Project Manager - Information",1,1,0,"50",29.2,-7.4,-0.206866797591081,0.10797258228388,-0.0115950050735494,1.91591970123666
"51","01rSsifR","Mood",75,25,40,35,"Yes to treatment",90,1202.62000000002,1.6,39,37,38,39,43,23,24,13,20,16,"2",29,1,2,1,1,2,3,3,6,4,2,"41000","Business Management","15","Project Manager - Information",1,1,0,"51",-20.8,12.6,-0.206866797591081,0.10797258228388,-0.0115950050735494,1.91591970123666
"52","01rSsifR","Mood",75,5,65,30,"Yes to treatment",77,1089.8449999986,13,39,37,38,39,43,23,24,13,20,16,"2",29,1,2,1,1,2,3,3,6,4,2,"41000","Business Management","15","Project Manager - Information",1,1,0,"52",-40.8,37.6,-0.206866797591081,0.10797258228388,-0.0115950050735494,1.91591970123666
"53","01rSsifR","Mood",75,35,5,60,"No to treatment",90,850.51999999996,0.142857142857143,39,37,38,39,43,23,24,13,20,16,"2",29,1,2,1,1,2,3,3,6,4,2,"41000","Business Management","15","Project Manager - Information",1,1,0,"53",-10.8,-22.4,-0.206866797591081,0.10797258228388,-0.0115950050735494,1.91591970123666
"54","01rSsifR","Mood",75,20,35,45,"No to treatment",77,5776.44500000315,1.75,39,37,38,39,43,23,24,13,20,16,"2",29,1,2,1,1,2,3,3,6,4,2,"41000","Business Management","15","Project Manager - Information",1,1,0,"54",-25.8,7.6,-0.206866797591081,0.10797258228388,-0.0115950050735494,1.91591970123666
"55","01rSsifR","Mood",75,25,15,60,"No to treatment",77,944.754999996803,0.6,39,37,38,39,43,23,24,13,20,16,"2",29,1,2,1,1,2,3,3,6,4,2,"41000","Business Management","15","Project Manager - Information",1,1,0,"55",-20.8,-12.4,-0.206866797591081,0.10797258228388,-0.0115950050735494,1.91591970123666
"56","01rSsifR","Mood",75,25,15,60,"No to treatment",90,1121.24500000209,0.6,39,37,38,39,43,23,24,13,20,16,"2",29,1,2,1,1,2,3,3,6,4,2,"41000","Business Management","15","Project Manager - Information",1,1,0,"56",-20.8,-12.4,-0.206866797591081,0.10797258228388,-0.0115950050735494,1.91591970123666
"57","01rSsifR","Mood",75,80,15,5,"No to treatment",90,833.630000000994,0.1875,39,37,38,39,43,23,24,13,20,16,"2",29,1,2,1,1,2,3,3,6,4,2,"41000","Business Management","15","Project Manager - Information",1,1,0,"57",34.2,-12.4,-0.206866797591081,0.10797258228388,-0.0115950050735494,1.91591970123666
"58","01rSsifR","Mood",75,25,15,60,"No to treatment",90,2098.34000000046,0.6,39,37,38,39,43,23,24,13,20,16,"2",29,1,2,1,1,2,3,3,6,4,2,"41000","Business Management","15","Project Manager - Information",1,1,0,"58",-20.8,-12.4,-0.206866797591081,0.10797258228388,-0.0115950050735494,1.91591970123666
"59","01rSsifR","Mood",75,55,25,20,"No to treatment",77,898.26499999981,0.454545454545455,39,37,38,39,43,23,24,13,20,16,"2",29,1,2,1,1,2,3,3,6,4,2,"41000","Business Management","15","Project Manager - Information",1,1,0,"59",9.2,-2.4,-0.206866797591081,0.10797258228388,-0.0115950050735494,1.91591970123666
"60","01rSsifR","Mood",75,30,40,30,"Yes to treatment",77,1393.39499999915,1.33333333333333,39,37,38,39,43,23,24,13,20,16,"2",29,1,2,1,1,2,3,3,6,4,2,"41000","Business Management","15","Project Manager - Information",1,1,0,"60",-15.8,12.6,-0.206866797591081,0.10797258228388,-0.0115950050735494,1.91591970123666
"61","01rSsifR","Mood",75,85,5,10,"No to treatment",77,1057.67500000002,0.0588235294117647,39,37,38,39,43,23,24,13,20,16,"2",29,1,2,1,1,2,3,3,6,4,2,"41000","Business Management","15","Project Manager - Information",1,1,0,"61",39.2,-22.4,-0.206866797591081,0.10797258228388,-0.0115950050735494,1.91591970123666
"62","01rSsifR","Mood",75,75,15,10,"No to treatment",77,5320.27000000016,0.2,39,37,38,39,43,23,24,13,20,16,"2",29,1,2,1,1,2,3,3,6,4,2,"41000","Business Management","15","Project Manager - Information",1,1,0,"62",29.2,-12.4,-0.206866797591081,0.10797258228388,-0.0115950050735494,1.91591970123666
"63","01rSsifR","Mood",75,30,35,35,"Yes to treatment",77,4546.45000000164,1.16666666666667,39,37,38,39,43,23,24,13,20,16,"2",29,1,2,1,1,2,3,3,6,4,2,"41000","Business Management","15","Project Manager - Information",1,1,0,"63",-15.8,7.6,-0.206866797591081,0.10797258228388,-0.0115950050735494,1.91591970123666
"64","01rSsifR","Mood",75,75,15,10,"No to treatment",77,976.265000001149,0.2,39,37,38,39,43,23,24,13,20,16,"2",29,1,2,1,1,2,3,3,6,4,2,"41000","Business Management","15","Project Manager - Information",1,1,0,"64",29.2,-12.4,-0.206866797591081,0.10797258228388,-0.0115950050735494,1.91591970123666
"65","01rSsifR","Mood",75,20,5,75,"No to treatment",77,849.469999997411,0.25,39,37,38,39,43,23,24,13,20,16,"2",29,1,2,1,1,2,3,3,6,4,2,"41000","Business Management","15","Project Manager - Information",1,1,0,"65",-25.8,-22.4,-0.206866797591081,0.10797258228388,-0.0115950050735494,1.91591970123666
"66","01rSsifR","Mood",75,85,5,10,"No to treatment",77,1080.81500000117,0.0588235294117647,39,37,38,39,43,23,24,13,20,16,"2",29,1,2,1,1,2,3,3,6,4,2,"41000","Business Management","15","Project Manager - Information",1,1,0,"66",39.2,-22.4,-0.206866797591081,0.10797258228388,-0.0115950050735494,1.91591970123666
"67","01rSsifR","Mood",75,20,75,5,"Yes to treatment",77,2176.21999999756,3.75,39,37,38,39,43,23,24,13,20,16,"2",29,1,2,1,1,2,3,3,6,4,2,"41000","Business Management","15","Project Manager - Information",1,1,0,"67",-25.8,47.6,-0.206866797591081,0.10797258228388,-0.0115950050735494,1.91591970123666
"68","01rSsifR","Mood",75,35,20,45,"No to treatment",90,1058.10000000201,0.571428571428571,39,37,38,39,43,23,24,13,20,16,"2",29,1,2,1,1,2,3,3,6,4,2,"41000","Business Management","15","Project Manager - Information",1,1,0,"68",-10.8,-7.4,-0.206866797591081,0.10797258228388,-0.0115950050735494,1.91591970123666
"69","01rSsifR","Mood",75,40,35,25,"No to treatment",77,2577.82499999666,0.875,39,37,38,39,43,23,24,13,20,16,"2",29,1,2,1,1,2,3,3,6,4,2,"41000","Business Management","15","Project Manager - Information",1,1,0,"69",-5.8,7.6,-0.206866797591081,0.10797258228388,-0.0115950050735494,1.91591970123666
"70","01rSsifR","Mood",75,30,55,15,"Yes to treatment",90,1409.40000000046,1.83333333333333,39,37,38,39,43,23,24,13,20,16,"2",29,1,2,1,1,2,3,3,6,4,2,"41000","Business Management","15","Project Manager - Information",1,1,0,"70",-15.8,27.6,-0.206866797591081,0.10797258228388,-0.0115950050735494,1.91591970123666
"71","01rSsifR","Mood",75,45,20,35,"No to treatment",77,881.844999999885,0.444444444444444,39,37,38,39,43,23,24,13,20,16,"2",29,1,2,1,1,2,3,3,6,4,2,"41000","Business Management","15","Project Manager - Information",1,1,0,"71",-0.799999999999997,-7.4,-0.206866797591081,0.10797258228388,-0.0115950050735494,1.91591970123666
"72","01rSsifR","Mood",75,80,15,5,"No to treatment",90,969.989999997779,0.1875,39,37,38,39,43,23,24,13,20,16,"2",29,1,2,1,1,2,3,3,6,4,2,"41000","Business Management","15","Project Manager - Information",1,1,0,"72",34.2,-12.4,-0.206866797591081,0.10797258228388,-0.0115950050735494,1.91591970123666
"73","01rSsifR","Mood",75,75,5,20,"No to treatment",90,1058.21500000093,0.0666666666666667,39,37,38,39,43,23,24,13,20,16,"2",29,1,2,1,1,2,3,3,6,4,2,"41000","Business Management","15","Project Manager - Information",1,1,0,"73",29.2,-22.4,-0.206866797591081,0.10797258228388,-0.0115950050735494,1.91591970123666
"74","01rSsifR","Mood",75,75,5,20,"No to treatment",77,753.154999998515,0.0666666666666667,39,37,38,39,43,23,24,13,20,16,"2",29,1,2,1,1,2,3,3,6,4,2,"41000","Business Management","15","Project Manager - Information",1,1,0,"74",29.2,-22.4,-0.206866797591081,0.10797258228388,-0.0115950050735494,1.91591970123666
"75","01rSsifR","Mood",75,25,35,40,"Yes to treatment",90,5473.42000000208,1.4,39,37,38,39,43,23,24,13,20,16,"2",29,1,2,1,1,2,3,3,6,4,2,"41000","Business Management","15","Project Manager - Information",1,1,0,"75",-20.8,7.6,-0.206866797591081,0.10797258228388,-0.0115950050735494,1.91591970123666
"76","0DeJj31H","Short Term (Working) Memory",75,20,45,35,"Yes to treatment",90,864.000000001397,2.25,45,47,38,37,43,18,21,19,22,18,"1",29,4,4,6,6,2,2,3,3,5,3,"25000","Computer","19","software",2,0,1,"1",-28.6666666666667,19.8,-0.267717100797204,-0.49783708032311,-0.00263414384921097,-0.5377604669854
"77","0DeJj31H","Short Term (Working) Memory",75,10,25,65,"Yes to treatment",90,895.349999998871,2.5,45,47,38,37,43,18,21,19,22,18,"1",29,4,4,6,6,2,2,3,3,5,3,"25000","Computer","19","software",2,0,1,"2",-38.6666666666667,-0.199999999999999,-0.267717100797204,-0.49783708032311,-0.00263414384921097,-0.5377604669854
"78","0DeJj31H","Short Term (Working) Memory",75,50,30,20,"Yes to treatment",90,924.739999998594,0.6,45,47,38,37,43,18,21,19,22,18,"1",29,4,4,6,6,2,2,3,3,5,3,"25000","Computer","19","software",2,0,1,"3",1.33333333333334,4.8,-0.267717100797204,-0.49783708032311,-0.00263414384921097,-0.5377604669854
"79","0DeJj31H","Short Term (Working) Memory",75,15,50,35,"Yes to treatment",90,1063.27000000241,3.33333333333333,45,47,38,37,43,18,21,19,22,18,"1",29,4,4,6,6,2,2,3,3,5,3,"25000","Computer","19","software",2,0,1,"4",-33.6666666666667,24.8,-0.267717100797204,-0.49783708032311,-0.00263414384921097,-0.5377604669854
"80","0DeJj31H","Short Term (Working) Memory",75,5,70,25,"Yes to treatment",77,685.760000000359,14,45,47,38,37,43,18,21,19,22,18,"1",29,4,4,6,6,2,2,3,3,5,3,"25000","Computer","19","software",2,0,1,"5",-43.6666666666667,44.8,-0.267717100797204,-0.49783708032311,-0.00263414384921097,-0.5377604669854
"81","0DeJj31H","Short Term (Working) Memory",75,50,10,40,"Yes to treatment",77,769.109999997425,0.2,45,47,38,37,43,18,21,19,22,18,"1",29,4,4,6,6,2,2,3,3,5,3,"25000","Computer","19","software",2,0,1,"6",1.33333333333334,-15.2,-0.267717100797204,-0.49783708032311,-0.00263414384921097,-0.5377604669854
"82","0DeJj31H","Short Term (Working) Memory",75,40,30,30,"Yes to treatment",90,675.074999999139,0.75,45,47,38,37,43,18,21,19,22,18,"1",29,4,4,6,6,2,2,3,3,5,3,"25000","Computer","19","software",2,0,1,"7",-8.66666666666666,4.8,-0.267717100797204,-0.49783708032311,-0.00263414384921097,-0.5377604669854
"83","0DeJj31H","Short Term (Working) Memory",75,90,5,5,"Yes to treatment",77,531.34499999939,0.0555555555555556,45,47,38,37,43,18,21,19,22,18,"1",29,4,4,6,6,2,2,3,3,5,3,"25000","Computer","19","software",2,0,1,"8",41.3333333333333,-20.2,-0.267717100797204,-0.49783708032311,-0.00263414384921097,-0.5377604669854
"84","0DeJj31H","Short Term (Working) Memory",75,10,25,65,"Yes to treatment",90,842.889999999898,2.5,45,47,38,37,43,18,21,19,22,18,"1",29,4,4,6,6,2,2,3,3,5,3,"25000","Computer","19","software",2,0,1,"9",-38.6666666666667,-0.199999999999999,-0.267717100797204,-0.49783708032311,-0.00263414384921097,-0.5377604669854
"85","0DeJj31H","Short Term (Working) Memory",75,20,65,15,"Yes to treatment",77,600.084999998217,3.25,45,47,38,37,43,18,21,19,22,18,"1",29,4,4,6,6,2,2,3,3,5,3,"25000","Computer","19","software",2,0,1,"10",-28.6666666666667,39.8,-0.267717100797204,-0.49783708032311,-0.00263414384921097,-0.5377604669854
"86","0DeJj31H","Short Term (Working) Memory",75,55,20,25,"Yes to treatment",90,605.51000000129,0.363636363636364,45,47,38,37,43,18,21,19,22,18,"1",29,4,4,6,6,2,2,3,3,5,3,"25000","Computer","19","software",2,0,1,"11",6.33333333333334,-5.2,-0.267717100797204,-0.49783708032311,-0.00263414384921097,-0.5377604669854
"87","0DeJj31H","Short Term (Working) Memory",75,20,65,15,"Yes to treatment",90,5318.48000000173,3.25,45,47,38,37,43,18,21,19,22,18,"1",29,4,4,6,6,2,2,3,3,5,3,"25000","Computer","19","software",2,0,1,"12",-28.6666666666667,39.8,-0.267717100797204,-0.49783708032311,-0.00263414384921097,-0.5377604669854
"88","0DeJj31H","Short Term (Working) Memory",75,90,5,5,"Yes to treatment",90,529.160000001837,0.0555555555555556,45,47,38,37,43,18,21,19,22,18,"1",29,4,4,6,6,2,2,3,3,5,3,"25000","Computer","19","software",2,0,1,"13",41.3333333333333,-20.2,-0.267717100797204,-0.49783708032311,-0.00263414384921097,-0.5377604669854
"89","0DeJj31H","Short Term (Working) Memory",75,65,20,15,"Yes to treatment",77,609.85500000231,0.307692307692308,45,47,38,37,43,18,21,19,22,18,"1",29,4,4,6,6,2,2,3,3,5,3,"25000","Computer","19","software",2,0,1,"14",16.3333333333333,-5.2,-0.267717100797204,-0.49783708032311,-0.00263414384921097,-0.5377604669854
"90","0DeJj31H","Short Term (Working) Memory",75,85,10,5,"Yes to treatment",77,647.639999999199,0.117647058823529,45,47,38,37,43,18,21,19,22,18,"1",29,4,4,6,6,2,2,3,3,5,3,"25000","Computer","19","software",2,0,1,"15",36.3333333333333,-15.2,-0.267717100797204,-0.49783708032311,-0.00263414384921097,-0.5377604669854
"91","0DeJj31H","Short Term (Working) Memory",75,5,80,15,"Yes to treatment",77,527.539999999164,16,45,47,38,37,43,18,21,19,22,18,"1",29,4,4,6,6,2,2,3,3,5,3,"25000","Computer","19","software",2,0,1,"16",-43.6666666666667,54.8,-0.267717100797204,-0.49783708032311,-0.00263414384921097,-0.5377604669854
"92","0DeJj31H","Short Term (Working) Memory",75,70,15,15,"Yes to treatment",90,632.979999998468,0.214285714285714,45,47,38,37,43,18,21,19,22,18,"1",29,4,4,6,6,2,2,3,3,5,3,"25000","Computer","19","software",2,0,1,"17",21.3333333333333,-10.2,-0.267717100797204,-0.49783708032311,-0.00263414384921097,-0.5377604669854
"93","0DeJj31H","Short Term (Working) Memory",75,5,65,30,"Yes to treatment",90,463.779999998282,13,45,47,38,37,43,18,21,19,22,18,"1",29,4,4,6,6,2,2,3,3,5,3,"25000","Computer","19","software",2,0,1,"18",-43.6666666666667,39.8,-0.267717100797204,-0.49783708032311,-0.00263414384921097,-0.5377604669854
"94","0DeJj31H","Short Term (Working) Memory",75,50,20,30,"Yes to treatment",77,528.854999996838,0.4,45,47,38,37,43,18,21,19,22,18,"1",29,4,4,6,6,2,2,3,3,5,3,"25000","Computer","19","software",2,0,1,"19",1.33333333333334,-5.2,-0.267717100797204,-0.49783708032311,-0.00263414384921097,-0.5377604669854
"95","0DeJj31H","Short Term (Working) Memory",75,5,85,10,"No to treatment",90,1043.28999999777,17,45,47,38,37,43,18,21,19,22,18,"1",29,4,4,6,6,2,2,3,3,5,3,"25000","Computer","19","software",2,0,1,"20",-43.6666666666667,59.8,-0.267717100797204,-0.49783708032311,-0.00263414384921097,-0.5377604669854
"96","0DeJj31H","Short Term (Working) Memory",75,60,10,30,"Yes to treatment",77,605.459999998799,0.166666666666667,45,47,38,37,43,18,21,19,22,18,"1",29,4,4,6,6,2,2,3,3,5,3,"25000","Computer","19","software",2,0,1,"21",11.3333333333333,-15.2,-0.267717100797204,-0.49783708032311,-0.00263414384921097,-0.5377604669854
"97","0DeJj31H","Short Term (Working) Memory",75,90,5,5,"Yes to treatment",77,591.550000001094,0.0555555555555556,45,47,38,37,43,18,21,19,22,18,"1",29,4,4,6,6,2,2,3,3,5,3,"25000","Computer","19","software",2,0,1,"22",41.3333333333333,-20.2,-0.267717100797204,-0.49783708032311,-0.00263414384921097,-0.5377604669854
"98","0DeJj31H","Short Term (Working) Memory",75,45,20,35,"Yes to treatment",90,656.254999998026,0.444444444444444,45,47,38,37,43,18,21,19,22,18,"1",29,4,4,6,6,2,2,3,3,5,3,"25000","Computer","19","software",2,0,1,"23",-3.66666666666666,-5.2,-0.267717100797204,-0.49783708032311,-0.00263414384921097,-0.5377604669854
"99","0DeJj31H","Short Term (Working) Memory",75,10,75,15,"Yes to treatment",90,738.570000001462,7.5,45,47,38,37,43,18,21,19,22,18,"1",29,4,4,6,6,2,2,3,3,5,3,"25000","Computer","19","software",2,0,1,"24",-38.6666666666667,49.8,-0.267717100797204,-0.49783708032311,-0.00263414384921097,-0.5377604669854
"100","0DeJj31H","Short Term (Working) Memory",75,75,20,5,"Yes to treatment",77,5661.64500000014,0.266666666666667,45,47,38,37,43,18,21,19,22,18,"1",29,4,4,6,6,2,2,3,3,5,3,"25000","Computer","19","software",2,0,1,"25",26.3333333333333,-5.2,-0.267717100797204,-0.49783708032311,-0.00263414384921097,-0.5377604669854
"101","0DeJj31H","Short Term (Working) Memory",75,5,5,90,"Yes to treatment",77,666.454999998678,1,45,47,38,37,43,18,21,19,22,18,"1",29,4,4,6,6,2,2,3,3,5,3,"25000","Computer","19","software",2,0,1,"26",-43.6666666666667,-20.2,-0.267717100797204,-0.49783708032311,-0.00263414384921097,-0.5377604669854
"102","0DeJj31H","Short Term (Working) Memory",75,90,5,5,"Yes to treatment",77,549.830000003567,0.0555555555555556,45,47,38,37,43,18,21,19,22,18,"1",29,4,4,6,6,2,2,3,3,5,3,"25000","Computer","19","software",2,0,1,"27",41.3333333333333,-20.2,-0.267717100797204,-0.49783708032311,-0.00263414384921097,-0.5377604669854
"103","0DeJj31H","Short Term (Working) Memory",75,10,80,10,"Yes to treatment",77,652.865000000049,8,45,47,38,37,43,18,21,19,22,18,"1",29,4,4,6,6,2,2,3,3,5,3,"25000","Computer","19","software",2,0,1,"28",-38.6666666666667,54.8,-0.267717100797204,-0.49783708032311,-0.00263414384921097,-0.5377604669854
"104","0DeJj31H","Short Term (Working) Memory",75,70,20,10,"Yes to treatment",77,484.019999999902,0.285714285714286,45,47,38,37,43,18,21,19,22,18,"1",29,4,4,6,6,2,2,3,3,5,3,"25000","Computer","19","software",2,0,1,"29",21.3333333333333,-5.2,-0.267717100797204,-0.49783708032311,-0.00263414384921097,-0.5377604669854
"105","0DeJj31H","Short Term (Working) Memory",75,70,15,15,"Yes to treatment",90,581.060000000522,0.214285714285714,45,47,38,37,43,18,21,19,22,18,"1",29,4,4,6,6,2,2,3,3,5,3,"25000","Computer","19","software",2,0,1,"30",21.3333333333333,-10.2,-0.267717100797204,-0.49783708032311,-0.00263414384921097,-0.5377604669854
"106","0DeJj31H","Short Term (Working) Memory",75,90,5,5,"Yes to treatment",90,626.619999999064,0.0555555555555556,45,47,38,37,43,18,21,19,22,18,"1",29,4,4,6,6,2,2,3,3,5,3,"25000","Computer","19","software",2,0,1,"31",41.3333333333333,-20.2,-0.267717100797204,-0.49783708032311,-0.00263414384921097,-0.5377604669854
"107","0DeJj31H","Short Term (Working) Memory",75,85,10,5,"Yes to treatment",90,564.374999998137,0.117647058823529,45,47,38,37,43,18,21,19,22,18,"1",29,4,4,6,6,2,2,3,3,5,3,"25000","Computer","19","software",2,0,1,"32",36.3333333333333,-15.2,-0.267717100797204,-0.49783708032311,-0.00263414384921097,-0.5377604669854
"108","0DeJj31H","Short Term (Working) Memory",75,40,30,30,"Yes to treatment",77,611.049999999464,0.75,45,47,38,37,43,18,21,19,22,18,"1",29,4,4,6,6,2,2,3,3,5,3,"25000","Computer","19","software",2,0,1,"33",-8.66666666666666,4.8,-0.267717100797204,-0.49783708032311,-0.00263414384921097,-0.5377604669854
"109","0DeJj31H","Short Term (Working) Memory",75,55,15,30,"Yes to treatment",77,581.214999998338,0.272727272727273,45,47,38,37,43,18,21,19,22,18,"1",29,4,4,6,6,2,2,3,3,5,3,"25000","Computer","19","software",2,0,1,"34",6.33333333333334,-10.2,-0.267717100797204,-0.49783708032311,-0.00263414384921097,-0.5377604669854
"110","0DeJj31H","Short Term (Working) Memory",75,90,5,5,"Yes to treatment",90,1378.32499999786,0.0555555555555556,45,47,38,37,43,18,21,19,22,18,"1",29,4,4,6,6,2,2,3,3,5,3,"25000","Computer","19","software",2,0,1,"35",41.3333333333333,-20.2,-0.267717100797204,-0.49783708032311,-0.00263414384921097,-0.5377604669854
"111","0DeJj31H","Short Term (Working) Memory",75,40,30,30,"Yes to treatment",90,493.764999999257,0.75,45,47,38,37,43,18,21,19,22,18,"1",29,4,4,6,6,2,2,3,3,5,3,"25000","Computer","19","software",2,0,1,"36",-8.66666666666666,4.8,-0.267717100797204,-0.49783708032311,-0.00263414384921097,-0.5377604669854
"112","0DeJj31H","Short Term (Working) Memory",75,35,40,25,"Yes to treatment",90,514.454999996815,1.14285714285714,45,47,38,37,43,18,21,19,22,18,"1",29,4,4,6,6,2,2,3,3,5,3,"25000","Computer","19","software",2,0,1,"37",-13.6666666666667,14.8,-0.267717100797204,-0.49783708032311,-0.00263414384921097,-0.5377604669854
"113","0DeJj31H","Short Term (Working) Memory",75,90,5,5,"Yes to treatment",90,922.650000000431,0.0555555555555556,45,47,38,37,43,18,21,19,22,18,"1",29,4,4,6,6,2,2,3,3,5,3,"25000","Computer","19","software",2,0,1,"38",41.3333333333333,-20.2,-0.267717100797204,-0.49783708032311,-0.00263414384921097,-0.5377604669854
"114","0DeJj31H","Short Term (Working) Memory",75,75,15,10,"Yes to treatment",90,575.494999997318,0.2,45,47,38,37,43,18,21,19,22,18,"1",29,4,4,6,6,2,2,3,3,5,3,"25000","Computer","19","software",2,0,1,"39",26.3333333333333,-10.2,-0.267717100797204,-0.49783708032311,-0.00263414384921097,-0.5377604669854
"115","0DeJj31H","Short Term (Working) Memory",75,35,25,40,"Yes to treatment",77,566.35499999905,0.714285714285714,45,47,38,37,43,18,21,19,22,18,"1",29,4,4,6,6,2,2,3,3,5,3,"25000","Computer","19","software",2,0,1,"40",-13.6666666666667,-0.199999999999999,-0.267717100797204,-0.49783708032311,-0.00263414384921097,-0.5377604669854
"116","0DeJj31H","Short Term (Working) Memory",75,35,20,45,"Yes to treatment",77,660.659999997704,0.571428571428571,45,47,38,37,43,18,21,19,22,18,"1",29,4,4,6,6,2,2,3,3,5,3,"25000","Computer","19","software",2,0,1,"41",-13.6666666666667,-5.2,-0.267717100797204,-0.49783708032311,-0.00263414384921097,-0.5377604669854
"117","0DeJj31H","Short Term (Working) Memory",75,15,10,75,"Yes to treatment",77,597.695000000356,0.666666666666667,45,47,38,37,43,18,21,19,22,18,"1",29,4,4,6,6,2,2,3,3,5,3,"25000","Computer","19","software",2,0,1,"42",-33.6666666666667,-15.2,-0.267717100797204,-0.49783708032311,-0.00263414384921097,-0.5377604669854
"118","0DeJj31H","Short Term (Working) Memory",75,30,30,40,"Yes to treatment",90,666.32000000024,1,45,47,38,37,43,18,21,19,22,18,"1",29,4,4,6,6,2,2,3,3,5,3,"25000","Computer","19","software",2,0,1,"43",-18.6666666666667,4.8,-0.267717100797204,-0.49783708032311,-0.00263414384921097,-0.5377604669854
"119","0DeJj31H","Short Term (Working) Memory",75,65,20,15,"Yes to treatment",90,658.694999998203,0.307692307692308,45,47,38,37,43,18,21,19,22,18,"1",29,4,4,6,6,2,2,3,3,5,3,"25000","Computer","19","software",2,0,1,"44",16.3333333333333,-5.2,-0.267717100797204,-0.49783708032311,-0.00263414384921097,-0.5377604669854
"120","0DeJj31H","Short Term (Working) Memory",75,55,10,35,"Yes to treatment",90,739.205000001704,0.181818181818182,45,47,38,37,43,18,21,19,22,18,"1",29,4,4,6,6,2,2,3,3,5,3,"25000","Computer","19","software",2,0,1,"45",6.33333333333334,-15.2,-0.267717100797204,-0.49783708032311,-0.00263414384921097,-0.5377604669854
"121","0DeJj31H","Short Term (Working) Memory",75,30,20,50,"Yes to treatment",77,687.955000001239,0.666666666666667,45,47,38,37,43,18,21,19,22,18,"1",29,4,4,6,6,2,2,3,3,5,3,"25000","Computer","19","software",2,0,1,"46",-18.6666666666667,-5.2,-0.267717100797204,-0.49783708032311,-0.00263414384921097,-0.5377604669854
"122","0DeJj31H","Short Term (Working) Memory",75,60,15,25,"Yes to treatment",90,568.349999997707,0.25,45,47,38,37,43,18,21,19,22,18,"1",29,4,4,6,6,2,2,3,3,5,3,"25000","Computer","19","software",2,0,1,"47",11.3333333333333,-10.2,-0.267717100797204,-0.49783708032311,-0.00263414384921097,-0.5377604669854
"123","0DeJj31H","Short Term (Working) Memory",75,50,15,35,"Yes to treatment",90,431.484999997367,0.3,45,47,38,37,43,18,21,19,22,18,"1",29,4,4,6,6,2,2,3,3,5,3,"25000","Computer","19","software",2,0,1,"48",1.33333333333334,-10.2,-0.267717100797204,-0.49783708032311,-0.00263414384921097,-0.5377604669854
"124","0DeJj31H","Short Term (Working) Memory",75,75,15,10,"Yes to treatment",90,493.164999999804,0.2,45,47,38,37,43,18,21,19,22,18,"1",29,4,4,6,6,2,2,3,3,5,3,"25000","Computer","19","software",2,0,1,"49",26.3333333333333,-10.2,-0.267717100797204,-0.49783708032311,-0.00263414384921097,-0.5377604669854
"125","0DeJj31H","Short Term (Working) Memory",75,65,15,20,"Yes to treatment",90,431.585000002116,0.230769230769231,45,47,38,37,43,18,21,19,22,18,"1",29,4,4,6,6,2,2,3,3,5,3,"25000","Computer","19","software",2,0,1,"50",16.3333333333333,-10.2,-0.267717100797204,-0.49783708032311,-0.00263414384921097,-0.5377604669854
"126","0DeJj31H","Short Term (Working) Memory",75,80,15,5,"Yes to treatment",90,658.250000000466,0.1875,45,47,38,37,43,18,21,19,22,18,"1",29,4,4,6,6,2,2,3,3,5,3,"25000","Computer","19","software",2,0,1,"51",31.3333333333333,-10.2,-0.267717100797204,-0.49783708032311,-0.00263414384921097,-0.5377604669854
"127","0DeJj31H","Short Term (Working) Memory",75,50,5,45,"Yes to treatment",90,556.774999997288,0.1,45,47,38,37,43,18,21,19,22,18,"1",29,4,4,6,6,2,2,3,3,5,3,"25000","Computer","19","software",2,0,1,"52",1.33333333333334,-20.2,-0.267717100797204,-0.49783708032311,-0.00263414384921097,-0.5377604669854
"128","0DeJj31H","Short Term (Working) Memory",75,5,5,90,"Yes to treatment",77,631.754999998491,1,45,47,38,37,43,18,21,19,22,18,"1",29,4,4,6,6,2,2,3,3,5,3,"25000","Computer","19","software",2,0,1,"53",-43.6666666666667,-20.2,-0.267717100797204,-0.49783708032311,-0.00263414384921097,-0.5377604669854
"129","0DeJj31H","Short Term (Working) Memory",75,20,10,70,"Yes to treatment",90,27908.370000001,0.5,45,47,38,37,43,18,21,19,22,18,"1",29,4,4,6,6,2,2,3,3,5,3,"25000","Computer","19","software",2,0,1,"54",-28.6666666666667,-15.2,-0.267717100797204,-0.49783708032311,-0.00263414384921097,-0.5377604669854
"130","0DeJj31H","Short Term (Working) Memory",75,50,5,45,"Yes to treatment",90,23156.9850000014,0.1,45,47,38,37,43,18,21,19,22,18,"1",29,4,4,6,6,2,2,3,3,5,3,"25000","Computer","19","software",2,0,1,"55",1.33333333333334,-20.2,-0.267717100797204,-0.49783708032311,-0.00263414384921097,-0.5377604669854
"131","0DeJj31H","Short Term (Working) Memory",75,45,40,15,"Yes to treatment",77,599.425000000279,0.888888888888889,45,47,38,37,43,18,21,19,22,18,"1",29,4,4,6,6,2,2,3,3,5,3,"25000","Computer","19","software",2,0,1,"56",-3.66666666666666,14.8,-0.267717100797204,-0.49783708032311,-0.00263414384921097,-0.5377604669854
"132","0DeJj31H","Short Term (Working) Memory",75,35,20,45,"Yes to treatment",77,4517.01499999769,0.571428571428571,45,47,38,37,43,18,21,19,22,18,"1",29,4,4,6,6,2,2,3,3,5,3,"25000","Computer","19","software",2,0,1,"57",-13.6666666666667,-5.2,-0.267717100797204,-0.49783708032311,-0.00263414384921097,-0.5377604669854
"133","0DeJj31H","Short Term (Working) Memory",75,60,30,10,"Yes to treatment",90,557.710000000894,0.5,45,47,38,37,43,18,21,19,22,18,"1",29,4,4,6,6,2,2,3,3,5,3,"25000","Computer","19","software",2,0,1,"58",11.3333333333333,4.8,-0.267717100797204,-0.49783708032311,-0.00263414384921097,-0.5377604669854
"134","0DeJj31H","Short Term (Working) Memory",75,15,15,70,"Yes to treatment",77,1202.40000000194,1,45,47,38,37,43,18,21,19,22,18,"1",29,4,4,6,6,2,2,3,3,5,3,"25000","Computer","19","software",2,0,1,"59",-33.6666666666667,-10.2,-0.267717100797204,-0.49783708032311,-0.00263414384921097,-0.5377604669854
"135","0DeJj31H","Short Term (Working) Memory",75,35,30,35,"Yes to treatment",90,516.634999999893,0.857142857142857,45,47,38,37,43,18,21,19,22,18,"1",29,4,4,6,6,2,2,3,3,5,3,"25000","Computer","19","software",2,0,1,"60",-13.6666666666667,4.8,-0.267717100797204,-0.49783708032311,-0.00263414384921097,-0.5377604669854
"136","0DeJj31H","Short Term (Working) Memory",75,50,25,25,"Yes to treatment",90,467.574999998789,0.5,45,47,38,37,43,18,21,19,22,18,"1",29,4,4,6,6,2,2,3,3,5,3,"25000","Computer","19","software",2,0,1,"61",1.33333333333334,-0.199999999999999,-0.267717100797204,-0.49783708032311,-0.00263414384921097,-0.5377604669854
"137","0DeJj31H","Short Term (Working) Memory",75,65,10,25,"Yes to treatment",77,3171.66500000167,0.153846153846154,45,47,38,37,43,18,21,19,22,18,"1",29,4,4,6,6,2,2,3,3,5,3,"25000","Computer","19","software",2,0,1,"62",16.3333333333333,-15.2,-0.267717100797204,-0.49783708032311,-0.00263414384921097,-0.5377604669854
"138","0DeJj31H","Short Term (Working) Memory",75,80,10,10,"Yes to treatment",77,560.929999999702,0.125,45,47,38,37,43,18,21,19,22,18,"1",29,4,4,6,6,2,2,3,3,5,3,"25000","Computer","19","software",2,0,1,"63",31.3333333333333,-15.2,-0.267717100797204,-0.49783708032311,-0.00263414384921097,-0.5377604669854
"139","0DeJj31H","Short Term (Working) Memory",75,70,10,20,"Yes to treatment",90,567.159999998752,0.142857142857143,45,47,38,37,43,18,21,19,22,18,"1",29,4,4,6,6,2,2,3,3,5,3,"25000","Computer","19","software",2,0,1,"64",21.3333333333333,-15.2,-0.267717100797204,-0.49783708032311,-0.00263414384921097,-0.5377604669854
"140","0DeJj31H","Short Term (Working) Memory",75,55,30,15,"Yes to treatment",77,895.120000001043,0.545454545454545,45,47,38,37,43,18,21,19,22,18,"1",29,4,4,6,6,2,2,3,3,5,3,"25000","Computer","19","software",2,0,1,"65",6.33333333333334,4.8,-0.267717100797204,-0.49783708032311,-0.00263414384921097,-0.5377604669854
"141","0DeJj31H","Short Term (Working) Memory",75,85,5,10,"Yes to treatment",90,493.975000001257,0.0588235294117647,45,47,38,37,43,18,21,19,22,18,"1",29,4,4,6,6,2,2,3,3,5,3,"25000","Computer","19","software",2,0,1,"66",36.3333333333333,-20.2,-0.267717100797204,-0.49783708032311,-0.00263414384921097,-0.5377604669854
"142","0DeJj31H","Short Term (Working) Memory",75,50,35,15,"Yes to treatment",90,526.695000000414,0.7,45,47,38,37,43,18,21,19,22,18,"1",29,4,4,6,6,2,2,3,3,5,3,"25000","Computer","19","software",2,0,1,"67",1.33333333333334,9.8,-0.267717100797204,-0.49783708032311,-0.00263414384921097,-0.5377604669854
"143","0DeJj31H","Short Term (Working) Memory",75,35,40,25,"Yes to treatment",90,582.979999999166,1.14285714285714,45,47,38,37,43,18,21,19,22,18,"1",29,4,4,6,6,2,2,3,3,5,3,"25000","Computer","19","software",2,0,1,"68",-13.6666666666667,14.8,-0.267717100797204,-0.49783708032311,-0.00263414384921097,-0.5377604669854
"144","0DeJj31H","Short Term (Working) Memory",75,90,5,5,"Yes to treatment",77,713.529999997234,0.0555555555555556,45,47,38,37,43,18,21,19,22,18,"1",29,4,4,6,6,2,2,3,3,5,3,"25000","Computer","19","software",2,0,1,"69",41.3333333333333,-20.2,-0.267717100797204,-0.49783708032311,-0.00263414384921097,-0.5377604669854
"145","0DeJj31H","Short Term (Working) Memory",75,35,55,10,"No to treatment",90,485.800000002142,1.57142857142857,45,47,38,37,43,18,21,19,22,18,"1",29,4,4,6,6,2,2,3,3,5,3,"25000","Computer","19","software",2,0,1,"70",-13.6666666666667,29.8,-0.267717100797204,-0.49783708032311,-0.00263414384921097,-0.5377604669854
"146","0DeJj31H","Short Term (Working) Memory",75,30,45,25,"Yes to treatment",77,506.805000000866,1.5,45,47,38,37,43,18,21,19,22,18,"1",29,4,4,6,6,2,2,3,3,5,3,"25000","Computer","19","software",2,0,1,"71",-18.6666666666667,19.8,-0.267717100797204,-0.49783708032311,-0.00263414384921097,-0.5377604669854
"147","0DeJj31H","Short Term (Working) Memory",75,40,15,45,"Yes to treatment",77,597.495000001858,0.375,45,47,38,37,43,18,21,19,22,18,"1",29,4,4,6,6,2,2,3,3,5,3,"25000","Computer","19","software",2,0,1,"72",-8.66666666666666,-10.2,-0.267717100797204,-0.49783708032311,-0.00263414384921097,-0.5377604669854
"148","0DeJj31H","Short Term (Working) Memory",75,35,30,35,"Yes to treatment",90,598.40500000061,0.857142857142857,45,47,38,37,43,18,21,19,22,18,"1",29,4,4,6,6,2,2,3,3,5,3,"25000","Computer","19","software",2,0,1,"73",-13.6666666666667,4.8,-0.267717100797204,-0.49783708032311,-0.00263414384921097,-0.5377604669854
"149","0DeJj31H","Short Term (Working) Memory",75,45,50,5,"Yes to treatment",90,578.63499999803,1.11111111111111,45,47,38,37,43,18,21,19,22,18,"1",29,4,4,6,6,2,2,3,3,5,3,"25000","Computer","19","software",2,0,1,"74",-3.66666666666666,24.8,-0.267717100797204,-0.49783708032311,-0.00263414384921097,-0.5377604669854
"150","0DeJj31H","Short Term (Working) Memory",75,90,5,5,"Yes to treatment",77,638.1949999996,0.0555555555555556,45,47,38,37,43,18,21,19,22,18,"1",29,4,4,6,6,2,2,3,3,5,3,"25000","Computer","19","software",2,0,1,"75",41.3333333333333,-20.2,-0.267717100797204,-0.49783708032311,-0.00263414384921097,-0.5377604669854
"151","19x3QrYn","Language (spoken)",75,20,15,65,"No to treatment",77,738.274999894202,0.75,56,45,40,40,56,24,26,25,20,16,"1",33,4,3,1,1,4,4,6,6,6,3,"50000","4","12","FULL TIME",1,1,1,"1",-29,-12.1333333333333,0.158758826117894,0.236538788487931,0.00593528378259213,-0.671174597336684
"152","19x3QrYn","Language (spoken)",75,65,10,25,"Yes to treatment",77,621.984999626875,0.153846153846154,56,45,40,40,56,24,26,25,20,16,"1",33,4,3,1,1,4,4,6,6,6,3,"50000","4","12","FULL TIME",1,1,1,"2",16,-17.1333333333333,0.158758826117894,0.236538788487931,0.00593528378259213,-0.671174597336684
"153","19x3QrYn","Language (spoken)",75,10,50,40,"No to treatment",90,2919.57999952137,5,56,45,40,40,56,24,26,25,20,16,"1",33,4,3,1,1,4,4,6,6,6,3,"50000","4","12","FULL TIME",1,1,1,"3",-39,22.8666666666667,0.158758826117894,0.236538788487931,0.00593528378259213,-0.671174597336684
"154","19x3QrYn","Language (spoken)",75,50,30,20,"Yes to treatment",90,490.880000405014,0.6,56,45,40,40,56,24,26,25,20,16,"1",33,4,3,1,1,4,4,6,6,6,3,"50000","4","12","FULL TIME",1,1,1,"4",1,2.86666666666667,0.158758826117894,0.236538788487931,0.00593528378259213,-0.671174597336684
"155","19x3QrYn","Language (spoken)",75,10,70,20,"Yes to treatment",77,8342.75499917567,7,56,45,40,40,56,24,26,25,20,16,"1",33,4,3,1,1,4,4,6,6,6,3,"50000","4","12","FULL TIME",1,1,1,"5",-39,42.8666666666667,0.158758826117894,0.236538788487931,0.00593528378259213,-0.671174597336684
"156","19x3QrYn","Language (spoken)",75,75,5,20,"No to treatment",77,3612.22499981523,0.0666666666666667,56,45,40,40,56,24,26,25,20,16,"1",33,4,3,1,1,4,4,6,6,6,3,"50000","4","12","FULL TIME",1,1,1,"6",26,-22.1333333333333,0.158758826117894,0.236538788487931,0.00593528378259213,-0.671174597336684
"157","19x3QrYn","Language (spoken)",75,80,10,10,"Yes to treatment",77,1521.02999947965,0.125,56,45,40,40,56,24,26,25,20,16,"1",33,4,3,1,1,4,4,6,6,6,3,"50000","4","12","FULL TIME",1,1,1,"7",31,-17.1333333333333,0.158758826117894,0.236538788487931,0.00593528378259213,-0.671174597336684
"158","19x3QrYn","Language (spoken)",75,65,20,15,"Yes to treatment",90,687.040000222623,0.307692307692308,56,45,40,40,56,24,26,25,20,16,"1",33,4,3,1,1,4,4,6,6,6,3,"50000","4","12","FULL TIME",1,1,1,"8",16,-7.13333333333333,0.158758826117894,0.236538788487931,0.00593528378259213,-0.671174597336684
"159","19x3QrYn","Language (spoken)",75,35,55,10,"Yes to treatment",77,773.18499982357,1.57142857142857,56,45,40,40,56,24,26,25,20,16,"1",33,4,3,1,1,4,4,6,6,6,3,"50000","4","12","FULL TIME",1,1,1,"9",-14,27.8666666666667,0.158758826117894,0.236538788487931,0.00593528378259213,-0.671174597336684
"160","19x3QrYn","Language (spoken)",75,40,40,20,"Yes to treatment",77,717.679999768734,1,56,45,40,40,56,24,26,25,20,16,"1",33,4,3,1,1,4,4,6,6,6,3,"50000","4","12","FULL TIME",1,1,1,"10",-9,12.8666666666667,0.158758826117894,0.236538788487931,0.00593528378259213,-0.671174597336684
"161","19x3QrYn","Language (spoken)",75,5,80,15,"No to treatment",90,1304.75500039756,16,56,45,40,40,56,24,26,25,20,16,"1",33,4,3,1,1,4,4,6,6,6,3,"50000","4","12","FULL TIME",1,1,1,"11",-44,52.8666666666667,0.158758826117894,0.236538788487931,0.00593528378259213,-0.671174597336684
"162","19x3QrYn","Language (spoken)",75,80,15,5,"Yes to treatment",90,1150.26499982923,0.1875,56,45,40,40,56,24,26,25,20,16,"1",33,4,3,1,1,4,4,6,6,6,3,"50000","4","12","FULL TIME",1,1,1,"12",31,-12.1333333333333,0.158758826117894,0.236538788487931,0.00593528378259213,-0.671174597336684
"163","19x3QrYn","Language (spoken)",75,30,35,35,"Yes to treatment",90,2743.87499969453,1.16666666666667,56,45,40,40,56,24,26,25,20,16,"1",33,4,3,1,1,4,4,6,6,6,3,"50000","4","12","FULL TIME",1,1,1,"13",-19,7.86666666666667,0.158758826117894,0.236538788487931,0.00593528378259213,-0.671174597336684
"164","19x3QrYn","Language (spoken)",75,65,15,20,"Yes to treatment",90,586.544999852777,0.230769230769231,56,45,40,40,56,24,26,25,20,16,"1",33,4,3,1,1,4,4,6,6,6,3,"50000","4","12","FULL TIME",1,1,1,"14",16,-12.1333333333333,0.158758826117894,0.236538788487931,0.00593528378259213,-0.671174597336684
"165","19x3QrYn","Language (spoken)",75,45,35,20,"Yes to treatment",90,576.144999824464,0.777777777777778,56,45,40,40,56,24,26,25,20,16,"1",33,4,3,1,1,4,4,6,6,6,3,"50000","4","12","FULL TIME",1,1,1,"15",-4,7.86666666666667,0.158758826117894,0.236538788487931,0.00593528378259213,-0.671174597336684
"166","19x3QrYn","Language (spoken)",75,15,65,20,"Yes to treatment",90,630.399999208748,4.33333333333333,56,45,40,40,56,24,26,25,20,16,"1",33,4,3,1,1,4,4,6,6,6,3,"50000","4","12","FULL TIME",1,1,1,"16",-34,37.8666666666667,0.158758826117894,0.236538788487931,0.00593528378259213,-0.671174597336684
"167","19x3QrYn","Language (spoken)",75,85,10,5,"Yes to treatment",77,1036.0300000757,0.117647058823529,56,45,40,40,56,24,26,25,20,16,"1",33,4,3,1,1,4,4,6,6,6,3,"50000","4","12","FULL TIME",1,1,1,"17",36,-17.1333333333333,0.158758826117894,0.236538788487931,0.00593528378259213,-0.671174597336684
"168","19x3QrYn","Language (spoken)",75,40,35,25,"Yes to treatment",90,1203.1199997291,0.875,56,45,40,40,56,24,26,25,20,16,"1",33,4,3,1,1,4,4,6,6,6,3,"50000","4","12","FULL TIME",1,1,1,"18",-9,7.86666666666667,0.158758826117894,0.236538788487931,0.00593528378259213,-0.671174597336684
"169","19x3QrYn","Language (spoken)",75,5,55,40,"No to treatment",90,1865.82500021905,11,56,45,40,40,56,24,26,25,20,16,"1",33,4,3,1,1,4,4,6,6,6,3,"50000","4","12","FULL TIME",1,1,1,"19",-44,27.8666666666667,0.158758826117894,0.236538788487931,0.00593528378259213,-0.671174597336684
"170","19x3QrYn","Language (spoken)",75,40,5,55,"Yes to treatment",77,552.420000545681,0.125,56,45,40,40,56,24,26,25,20,16,"1",33,4,3,1,1,4,4,6,6,6,3,"50000","4","12","FULL TIME",1,1,1,"20",-9,-22.1333333333333,0.158758826117894,0.236538788487931,0.00593528378259213,-0.671174597336684
"171","19x3QrYn","Language (spoken)",75,15,15,70,"No to treatment",77,1978.11000049114,1,56,45,40,40,56,24,26,25,20,16,"1",33,4,3,1,1,4,4,6,6,6,3,"50000","4","12","FULL TIME",1,1,1,"21",-34,-12.1333333333333,0.158758826117894,0.236538788487931,0.00593528378259213,-0.671174597336684
"172","19x3QrYn","Language (spoken)",75,85,5,10,"Yes to treatment",90,12265.000000596,0.0588235294117647,56,45,40,40,56,24,26,25,20,16,"1",33,4,3,1,1,4,4,6,6,6,3,"50000","4","12","FULL TIME",1,1,1,"22",36,-22.1333333333333,0.158758826117894,0.236538788487931,0.00593528378259213,-0.671174597336684
"173","19x3QrYn","Language (spoken)",75,80,10,10,"Yes to treatment",77,458.525000140071,0.125,56,45,40,40,56,24,26,25,20,16,"1",33,4,3,1,1,4,4,6,6,6,3,"50000","4","12","FULL TIME",1,1,1,"23",31,-17.1333333333333,0.158758826117894,0.236538788487931,0.00593528378259213,-0.671174597336684
"174","19x3QrYn","Language (spoken)",75,20,50,30,"No to treatment",90,1626.65500026196,2.5,56,45,40,40,56,24,26,25,20,16,"1",33,4,3,1,1,4,4,6,6,6,3,"50000","4","12","FULL TIME",1,1,1,"24",-29,22.8666666666667,0.158758826117894,0.236538788487931,0.00593528378259213,-0.671174597336684
"175","19x3QrYn","Language (spoken)",75,55,30,15,"Yes to treatment",90,1600.02000071108,0.545454545454545,56,45,40,40,56,24,26,25,20,16,"1",33,4,3,1,1,4,4,6,6,6,3,"50000","4","12","FULL TIME",1,1,1,"25",6,2.86666666666667,0.158758826117894,0.236538788487931,0.00593528378259213,-0.671174597336684
"176","19x3QrYn","Language (spoken)",75,75,20,5,"Yes to treatment",77,1582.22999982536,0.266666666666667,56,45,40,40,56,24,26,25,20,16,"1",33,4,3,1,1,4,4,6,6,6,3,"50000","4","12","FULL TIME",1,1,1,"26",26,-7.13333333333333,0.158758826117894,0.236538788487931,0.00593528378259213,-0.671174597336684
"177","19x3QrYn","Language (spoken)",75,65,15,20,"Yes to treatment",77,16854.3999996036,0.230769230769231,56,45,40,40,56,24,26,25,20,16,"1",33,4,3,1,1,4,4,6,6,6,3,"50000","4","12","FULL TIME",1,1,1,"27",16,-12.1333333333333,0.158758826117894,0.236538788487931,0.00593528378259213,-0.671174597336684
"178","19x3QrYn","Language (spoken)",75,90,5,5,"Yes to treatment",90,619.629999622703,0.0555555555555556,56,45,40,40,56,24,26,25,20,16,"1",33,4,3,1,1,4,4,6,6,6,3,"50000","4","12","FULL TIME",1,1,1,"28",41,-22.1333333333333,0.158758826117894,0.236538788487931,0.00593528378259213,-0.671174597336684
"179","19x3QrYn","Language (spoken)",75,75,15,10,"Yes to treatment",77,591.614999808371,0.2,56,45,40,40,56,24,26,25,20,16,"1",33,4,3,1,1,4,4,6,6,6,3,"50000","4","12","FULL TIME",1,1,1,"29",26,-12.1333333333333,0.158758826117894,0.236538788487931,0.00593528378259213,-0.671174597336684
"180","19x3QrYn","Language (spoken)",75,90,5,5,"No to treatment",77,5359.54499989748,0.0555555555555556,56,45,40,40,56,24,26,25,20,16,"1",33,4,3,1,1,4,4,6,6,6,3,"50000","4","12","FULL TIME",1,1,1,"30",41,-22.1333333333333,0.158758826117894,0.236538788487931,0.00593528378259213,-0.671174597336684
"181","19x3QrYn","Language (spoken)",75,70,10,20,"Yes to treatment",77,17765.2549995109,0.142857142857143,56,45,40,40,56,24,26,25,20,16,"1",33,4,3,1,1,4,4,6,6,6,3,"50000","4","12","FULL TIME",1,1,1,"31",21,-17.1333333333333,0.158758826117894,0.236538788487931,0.00593528378259213,-0.671174597336684
"182","19x3QrYn","Language (spoken)",75,30,40,30,"Yes to treatment",77,3561.22499983758,1.33333333333333,56,45,40,40,56,24,26,25,20,16,"1",33,4,3,1,1,4,4,6,6,6,3,"50000","4","12","FULL TIME",1,1,1,"32",-19,12.8666666666667,0.158758826117894,0.236538788487931,0.00593528378259213,-0.671174597336684
"183","19x3QrYn","Language (spoken)",75,80,10,10,"Yes to treatment",77,395.804999396205,0.125,56,45,40,40,56,24,26,25,20,16,"1",33,4,3,1,1,4,4,6,6,6,3,"50000","4","12","FULL TIME",1,1,1,"33",31,-17.1333333333333,0.158758826117894,0.236538788487931,0.00593528378259213,-0.671174597336684
"184","19x3QrYn","Language (spoken)",75,10,85,5,"Yes to treatment",90,5224.9750001356,8.5,56,45,40,40,56,24,26,25,20,16,"1",33,4,3,1,1,4,4,6,6,6,3,"50000","4","12","FULL TIME",1,1,1,"34",-39,57.8666666666667,0.158758826117894,0.236538788487931,0.00593528378259213,-0.671174597336684
"185","19x3QrYn","Language (spoken)",75,30,55,15,"Yes to treatment",77,397.330000065267,1.83333333333333,56,45,40,40,56,24,26,25,20,16,"1",33,4,3,1,1,4,4,6,6,6,3,"50000","4","12","FULL TIME",1,1,1,"35",-19,27.8666666666667,0.158758826117894,0.236538788487931,0.00593528378259213,-0.671174597336684
"186","19x3QrYn","Language (spoken)",75,20,55,25,"Yes to treatment",90,728.985000401735,2.75,56,45,40,40,56,24,26,25,20,16,"1",33,4,3,1,1,4,4,6,6,6,3,"50000","4","12","FULL TIME",1,1,1,"36",-29,27.8666666666667,0.158758826117894,0.236538788487931,0.00593528378259213,-0.671174597336684
"187","19x3QrYn","Language (spoken)",75,80,5,15,"Yes to treatment",77,528.254999779165,0.0625,56,45,40,40,56,24,26,25,20,16,"1",33,4,3,1,1,4,4,6,6,6,3,"50000","4","12","FULL TIME",1,1,1,"37",31,-22.1333333333333,0.158758826117894,0.236538788487931,0.00593528378259213,-0.671174597336684
"188","19x3QrYn","Language (spoken)",75,45,45,10,"Yes to treatment",90,751.004999503493,1,56,45,40,40,56,24,26,25,20,16,"1",33,4,3,1,1,4,4,6,6,6,3,"50000","4","12","FULL TIME",1,1,1,"38",-4,17.8666666666667,0.158758826117894,0.236538788487931,0.00593528378259213,-0.671174597336684
"189","19x3QrYn","Language (spoken)",75,10,10,80,"Yes to treatment",77,1022.78999984264,1,56,45,40,40,56,24,26,25,20,16,"1",33,4,3,1,1,4,4,6,6,6,3,"50000","4","12","FULL TIME",1,1,1,"39",-39,-17.1333333333333,0.158758826117894,0.236538788487931,0.00593528378259213,-0.671174597336684
"190","19x3QrYn","Language (spoken)",75,80,10,10,"Yes to treatment",90,612.634999677539,0.125,56,45,40,40,56,24,26,25,20,16,"1",33,4,3,1,1,4,4,6,6,6,3,"50000","4","12","FULL TIME",1,1,1,"40",31,-17.1333333333333,0.158758826117894,0.236538788487931,0.00593528378259213,-0.671174597336684
"191","19x3QrYn","Language (spoken)",75,90,5,5,"Yes to treatment",77,485.975000075996,0.0555555555555556,56,45,40,40,56,24,26,25,20,16,"1",33,4,3,1,1,4,4,6,6,6,3,"50000","4","12","FULL TIME",1,1,1,"41",41,-22.1333333333333,0.158758826117894,0.236538788487931,0.00593528378259213,-0.671174597336684
"192","19x3QrYn","Language (spoken)",75,25,30,45,"Yes to treatment",90,712.770000100136,1.2,56,45,40,40,56,24,26,25,20,16,"1",33,4,3,1,1,4,4,6,6,6,3,"50000","4","12","FULL TIME",1,1,1,"42",-24,2.86666666666667,0.158758826117894,0.236538788487931,0.00593528378259213,-0.671174597336684
"193","19x3QrYn","Language (spoken)",75,85,10,5,"Yes to treatment",77,869.445000775158,0.117647058823529,56,45,40,40,56,24,26,25,20,16,"1",33,4,3,1,1,4,4,6,6,6,3,"50000","4","12","FULL TIME",1,1,1,"43",36,-17.1333333333333,0.158758826117894,0.236538788487931,0.00593528378259213,-0.671174597336684
"194","19x3QrYn","Language (spoken)",75,75,5,20,"Yes to treatment",77,426.954999566078,0.0666666666666667,56,45,40,40,56,24,26,25,20,16,"1",33,4,3,1,1,4,4,6,6,6,3,"50000","4","12","FULL TIME",1,1,1,"44",26,-22.1333333333333,0.158758826117894,0.236538788487931,0.00593528378259213,-0.671174597336684
"195","19x3QrYn","Language (spoken)",75,65,25,10,"Yes to treatment",77,417.100000195205,0.384615384615385,56,45,40,40,56,24,26,25,20,16,"1",33,4,3,1,1,4,4,6,6,6,3,"50000","4","12","FULL TIME",1,1,1,"45",16,-2.13333333333333,0.158758826117894,0.236538788487931,0.00593528378259213,-0.671174597336684
"196","19x3QrYn","Language (spoken)",75,70,5,25,"Yes to treatment",77,577.159999869764,0.0714285714285714,56,45,40,40,56,24,26,25,20,16,"1",33,4,3,1,1,4,4,6,6,6,3,"50000","4","12","FULL TIME",1,1,1,"46",21,-22.1333333333333,0.158758826117894,0.236538788487931,0.00593528378259213,-0.671174597336684
"197","19x3QrYn","Language (spoken)",75,25,30,45,"Yes to treatment",77,770.349999889731,1.2,56,45,40,40,56,24,26,25,20,16,"1",33,4,3,1,1,4,4,6,6,6,3,"50000","4","12","FULL TIME",1,1,1,"47",-24,2.86666666666667,0.158758826117894,0.236538788487931,0.00593528378259213,-0.671174597336684
"198","19x3QrYn","Language (spoken)",75,30,50,20,"Yes to treatment",77,565.225000493228,1.66666666666667,56,45,40,40,56,24,26,25,20,16,"1",33,4,3,1,1,4,4,6,6,6,3,"50000","4","12","FULL TIME",1,1,1,"48",-19,22.8666666666667,0.158758826117894,0.236538788487931,0.00593528378259213,-0.671174597336684
"199","19x3QrYn","Language (spoken)",75,80,15,5,"Yes to treatment",90,793.120000511408,0.1875,56,45,40,40,56,24,26,25,20,16,"1",33,4,3,1,1,4,4,6,6,6,3,"50000","4","12","FULL TIME",1,1,1,"49",31,-12.1333333333333,0.158758826117894,0.236538788487931,0.00593528378259213,-0.671174597336684
"200","19x3QrYn","Language (spoken)",75,5,45,50,"No to treatment",90,1332.24499970675,9,56,45,40,40,56,24,26,25,20,16,"1",33,4,3,1,1,4,4,6,6,6,3,"50000","4","12","FULL TIME",1,1,1,"50",-44,17.8666666666667,0.158758826117894,0.236538788487931,0.00593528378259213,-0.671174597336684
"201","19x3QrYn","Language (spoken)",75,35,10,55,"Yes to treatment",90,674.244999885559,0.285714285714286,56,45,40,40,56,24,26,25,20,16,"1",33,4,3,1,1,4,4,6,6,6,3,"50000","4","12","FULL TIME",1,1,1,"51",-14,-17.1333333333333,0.158758826117894,0.236538788487931,0.00593528378259213,-0.671174597336684
"202","19x3QrYn","Language (spoken)",75,90,5,5,"Yes to treatment",77,544.145000167191,0.0555555555555556,56,45,40,40,56,24,26,25,20,16,"1",33,4,3,1,1,4,4,6,6,6,3,"50000","4","12","FULL TIME",1,1,1,"52",41,-22.1333333333333,0.158758826117894,0.236538788487931,0.00593528378259213,-0.671174597336684
"203","19x3QrYn","Language (spoken)",75,15,10,75,"Yes to treatment",77,1076.40499994159,0.666666666666667,56,45,40,40,56,24,26,25,20,16,"1",33,4,3,1,1,4,4,6,6,6,3,"50000","4","12","FULL TIME",1,1,1,"53",-34,-17.1333333333333,0.158758826117894,0.236538788487931,0.00593528378259213,-0.671174597336684
"204","19x3QrYn","Language (spoken)",75,20,15,65,"No to treatment",77,337.580000050366,0.75,56,45,40,40,56,24,26,25,20,16,"1",33,4,3,1,1,4,4,6,6,6,3,"50000","4","12","FULL TIME",1,1,1,"54",-29,-12.1333333333333,0.158758826117894,0.236538788487931,0.00593528378259213,-0.671174597336684
"205","19x3QrYn","Language (spoken)",75,50,15,35,"Yes to treatment",77,586.240000091493,0.3,56,45,40,40,56,24,26,25,20,16,"1",33,4,3,1,1,4,4,6,6,6,3,"50000","4","12","FULL TIME",1,1,1,"55",1,-12.1333333333333,0.158758826117894,0.236538788487931,0.00593528378259213,-0.671174597336684
"206","19x3QrYn","Language (spoken)",75,30,15,55,"Yes to treatment",90,649.524999782443,0.5,56,45,40,40,56,24,26,25,20,16,"1",33,4,3,1,1,4,4,6,6,6,3,"50000","4","12","FULL TIME",1,1,1,"56",-19,-12.1333333333333,0.158758826117894,0.236538788487931,0.00593528378259213,-0.671174597336684
"207","19x3QrYn","Language (spoken)",75,70,5,25,"Yes to treatment",77,533.950000070035,0.0714285714285714,56,45,40,40,56,24,26,25,20,16,"1",33,4,3,1,1,4,4,6,6,6,3,"50000","4","12","FULL TIME",1,1,1,"57",21,-22.1333333333333,0.158758826117894,0.236538788487931,0.00593528378259213,-0.671174597336684
"208","19x3QrYn","Language (spoken)",75,15,55,30,"Yes to treatment",90,1017.45499949902,3.66666666666667,56,45,40,40,56,24,26,25,20,16,"1",33,4,3,1,1,4,4,6,6,6,3,"50000","4","12","FULL TIME",1,1,1,"58",-34,27.8666666666667,0.158758826117894,0.236538788487931,0.00593528378259213,-0.671174597336684
"209","19x3QrYn","Language (spoken)",75,40,55,5,"Yes to treatment",90,614.684999920428,1.375,56,45,40,40,56,24,26,25,20,16,"1",33,4,3,1,1,4,4,6,6,6,3,"50000","4","12","FULL TIME",1,1,1,"59",-9,27.8666666666667,0.158758826117894,0.236538788487931,0.00593528378259213,-0.671174597336684
"210","19x3QrYn","Language (spoken)",75,65,30,5,"Yes to treatment",77,646.025000140071,0.461538461538462,56,45,40,40,56,24,26,25,20,16,"1",33,4,3,1,1,4,4,6,6,6,3,"50000","4","12","FULL TIME",1,1,1,"60",16,2.86666666666667,0.158758826117894,0.236538788487931,0.00593528378259213,-0.671174597336684
"211","19x3QrYn","Language (spoken)",75,85,5,10,"Yes to treatment",77,513.775000348687,0.0588235294117647,56,45,40,40,56,24,26,25,20,16,"1",33,4,3,1,1,4,4,6,6,6,3,"50000","4","12","FULL TIME",1,1,1,"61",36,-22.1333333333333,0.158758826117894,0.236538788487931,0.00593528378259213,-0.671174597336684
"212","19x3QrYn","Language (spoken)",75,85,10,5,"Yes to treatment",77,415.520000271499,0.117647058823529,56,45,40,40,56,24,26,25,20,16,"1",33,4,3,1,1,4,4,6,6,6,3,"50000","4","12","FULL TIME",1,1,1,"62",36,-17.1333333333333,0.158758826117894,0.236538788487931,0.00593528378259213,-0.671174597336684
"213","19x3QrYn","Language (spoken)",75,40,25,35,"Yes to treatment",77,957.750000059605,0.625,56,45,40,40,56,24,26,25,20,16,"1",33,4,3,1,1,4,4,6,6,6,3,"50000","4","12","FULL TIME",1,1,1,"63",-9,-2.13333333333333,0.158758826117894,0.236538788487931,0.00593528378259213,-0.671174597336684
"214","19x3QrYn","Language (spoken)",75,75,20,5,"Yes to treatment",77,4312.14500032365,0.266666666666667,56,45,40,40,56,24,26,25,20,16,"1",33,4,3,1,1,4,4,6,6,6,3,"50000","4","12","FULL TIME",1,1,1,"64",26,-7.13333333333333,0.158758826117894,0.236538788487931,0.00593528378259213,-0.671174597336684
"215","19x3QrYn","Language (spoken)",75,20,75,5,"Yes to treatment",77,485.43499968946,3.75,56,45,40,40,56,24,26,25,20,16,"1",33,4,3,1,1,4,4,6,6,6,3,"50000","4","12","FULL TIME",1,1,1,"65",-29,47.8666666666667,0.158758826117894,0.236538788487931,0.00593528378259213,-0.671174597336684
"216","19x3QrYn","Language (spoken)",75,15,65,20,"Yes to treatment",77,459.604999981821,4.33333333333333,56,45,40,40,56,24,26,25,20,16,"1",33,4,3,1,1,4,4,6,6,6,3,"50000","4","12","FULL TIME",1,1,1,"66",-34,37.8666666666667,0.158758826117894,0.236538788487931,0.00593528378259213,-0.671174597336684
"217","19x3QrYn","Language (spoken)",75,90,5,5,"Yes to treatment",77,556.175000034273,0.0555555555555556,56,45,40,40,56,24,26,25,20,16,"1",33,4,3,1,1,4,4,6,6,6,3,"50000","4","12","FULL TIME",1,1,1,"67",41,-22.1333333333333,0.158758826117894,0.236538788487931,0.00593528378259213,-0.671174597336684
"218","19x3QrYn","Language (spoken)",75,45,15,40,"Yes to treatment",77,944.464999251068,0.333333333333333,56,45,40,40,56,24,26,25,20,16,"1",33,4,3,1,1,4,4,6,6,6,3,"50000","4","12","FULL TIME",1,1,1,"68",-4,-12.1333333333333,0.158758826117894,0.236538788487931,0.00593528378259213,-0.671174597336684
"219","19x3QrYn","Language (spoken)",75,15,5,80,"Yes to treatment",90,4028.70999928564,0.333333333333333,56,45,40,40,56,24,26,25,20,16,"1",33,4,3,1,1,4,4,6,6,6,3,"50000","4","12","FULL TIME",1,1,1,"69",-34,-22.1333333333333,0.158758826117894,0.236538788487931,0.00593528378259213,-0.671174597336684
"220","19x3QrYn","Language (spoken)",75,15,45,40,"Yes to treatment",90,1330.04000037909,3,56,45,40,40,56,24,26,25,20,16,"1",33,4,3,1,1,4,4,6,6,6,3,"50000","4","12","FULL TIME",1,1,1,"70",-34,17.8666666666667,0.158758826117894,0.236538788487931,0.00593528378259213,-0.671174597336684
"221","19x3QrYn","Language (spoken)",75,70,25,5,"Yes to treatment",77,727.869999594986,0.357142857142857,56,45,40,40,56,24,26,25,20,16,"1",33,4,3,1,1,4,4,6,6,6,3,"50000","4","12","FULL TIME",1,1,1,"71",21,-2.13333333333333,0.158758826117894,0.236538788487931,0.00593528378259213,-0.671174597336684
"222","19x3QrYn","Language (spoken)",75,50,45,5,"Yes to treatment",90,709.950000047684,0.9,56,45,40,40,56,24,26,25,20,16,"1",33,4,3,1,1,4,4,6,6,6,3,"50000","4","12","FULL TIME",1,1,1,"72",1,17.8666666666667,0.158758826117894,0.236538788487931,0.00593528378259213,-0.671174597336684
"223","19x3QrYn","Language (spoken)",75,50,15,35,"Yes to treatment",77,438.075000420213,0.3,56,45,40,40,56,24,26,25,20,16,"1",33,4,3,1,1,4,4,6,6,6,3,"50000","4","12","FULL TIME",1,1,1,"73",1,-12.1333333333333,0.158758826117894,0.236538788487931,0.00593528378259213,-0.671174597336684
"224","19x3QrYn","Language (spoken)",75,55,30,15,"Yes to treatment",77,689.105000346899,0.545454545454545,56,45,40,40,56,24,26,25,20,16,"1",33,4,3,1,1,4,4,6,6,6,3,"50000","4","12","FULL TIME",1,1,1,"74",6,2.86666666666667,0.158758826117894,0.236538788487931,0.00593528378259213,-0.671174597336684
"225","19x3QrYn","Language (spoken)",75,20,65,15,"Yes to treatment",90,586.63500007242,3.25,56,45,40,40,56,24,26,25,20,16,"1",33,4,3,1,1,4,4,6,6,6,3,"50000","4","12","FULL TIME",1,1,1,"75",-29,37.8666666666667,0.158758826117894,0.236538788487931,0.00593528378259213,-0.671174597336684
"226","1gDkJcCP","Attention (Concentration)",75,35,25,40,"Yes to treatment",90,476.279999998922,0.714285714285714,50,55,54,50,54,28,24,27,26,26,"1",26,4,3,6,6,2,4,3,3,4,1,"40000","COMPUTER SEICENCE","16","self-employed",2,0,1,"1",-12.4,0.399999999999999,0.193399635606786,3.50266007468042,0.00962840064996933,-0.0552150741103337
"227","1gDkJcCP","Attention (Concentration)",75,10,60,30,"Yes to treatment",77,548.374999998487,6,50,55,54,50,54,28,24,27,26,26,"1",26,4,3,6,6,2,4,3,3,4,1,"40000","COMPUTER SEICENCE","16","self-employed",2,0,1,"2",-37.4,35.4,0.193399635606786,3.50266007468042,0.00962840064996933,-0.0552150741103337
"228","1gDkJcCP","Attention (Concentration)",75,30,5,65,"Yes to treatment",90,588.54500000237,0.166666666666667,50,55,54,50,54,28,24,27,26,26,"1",26,4,3,6,6,2,4,3,3,4,1,"40000","COMPUTER SEICENCE","16","self-employed",2,0,1,"3",-17.4,-19.6,0.193399635606786,3.50266007468042,0.00962840064996933,-0.0552150741103337
"229","1gDkJcCP","Attention (Concentration)",75,75,10,15,"Yes to treatment",90,676.040000002075,0.133333333333333,50,55,54,50,54,28,24,27,26,26,"1",26,4,3,6,6,2,4,3,3,4,1,"40000","COMPUTER SEICENCE","16","self-employed",2,0,1,"4",27.6,-14.6,0.193399635606786,3.50266007468042,0.00962840064996933,-0.0552150741103337
"230","1gDkJcCP","Attention (Concentration)",75,20,55,25,"Yes to treatment",90,651.310000001104,2.75,50,55,54,50,54,28,24,27,26,26,"1",26,4,3,6,6,2,4,3,3,4,1,"40000","COMPUTER SEICENCE","16","self-employed",2,0,1,"5",-27.4,30.4,0.193399635606786,3.50266007468042,0.00962840064996933,-0.0552150741103337
"231","1gDkJcCP","Attention (Concentration)",75,70,25,5,"Yes to treatment",77,650.679999998829,0.357142857142857,50,55,54,50,54,28,24,27,26,26,"1",26,4,3,6,6,2,4,3,3,4,1,"40000","COMPUTER SEICENCE","16","self-employed",2,0,1,"6",22.6,0.399999999999999,0.193399635606786,3.50266007468042,0.00962840064996933,-0.0552150741103337
"232","1gDkJcCP","Attention (Concentration)",75,20,70,10,"Yes to treatment",77,683.84999999759,3.5,50,55,54,50,54,28,24,27,26,26,"1",26,4,3,6,6,2,4,3,3,4,1,"40000","COMPUTER SEICENCE","16","self-employed",2,0,1,"7",-27.4,45.4,0.193399635606786,3.50266007468042,0.00962840064996933,-0.0552150741103337
"233","1gDkJcCP","Attention (Concentration)",75,60,20,20,"Yes to treatment",90,594.860000001034,0.333333333333333,50,55,54,50,54,28,24,27,26,26,"1",26,4,3,6,6,2,4,3,3,4,1,"40000","COMPUTER SEICENCE","16","self-employed",2,0,1,"8",12.6,-4.6,0.193399635606786,3.50266007468042,0.00962840064996933,-0.0552150741103337
"234","1gDkJcCP","Attention (Concentration)",75,10,25,65,"Yes to treatment",77,529.765000002983,2.5,50,55,54,50,54,28,24,27,26,26,"1",26,4,3,6,6,2,4,3,3,4,1,"40000","COMPUTER SEICENCE","16","self-employed",2,0,1,"9",-37.4,0.399999999999999,0.193399635606786,3.50266007468042,0.00962840064996933,-0.0552150741103337
"235","1gDkJcCP","Attention (Concentration)",75,30,25,45,"Yes to treatment",90,682.235000000219,0.833333333333333,50,55,54,50,54,28,24,27,26,26,"1",26,4,3,6,6,2,4,3,3,4,1,"40000","COMPUTER SEICENCE","16","self-employed",2,0,1,"10",-17.4,0.399999999999999,0.193399635606786,3.50266007468042,0.00962840064996933,-0.0552150741103337
"236","1gDkJcCP","Attention (Concentration)",75,60,35,5,"Yes to treatment",77,633.740000001155,0.583333333333333,50,55,54,50,54,28,24,27,26,26,"1",26,4,3,6,6,2,4,3,3,4,1,"40000","COMPUTER SEICENCE","16","self-employed",2,0,1,"11",12.6,10.4,0.193399635606786,3.50266007468042,0.00962840064996933,-0.0552150741103337
"237","1gDkJcCP","Attention (Concentration)",75,60,25,15,"Yes to treatment",77,635.985000000801,0.416666666666667,50,55,54,50,54,28,24,27,26,26,"1",26,4,3,6,6,2,4,3,3,4,1,"40000","COMPUTER SEICENCE","16","self-employed",2,0,1,"12",12.6,0.399999999999999,0.193399635606786,3.50266007468042,0.00962840064996933,-0.0552150741103337
"238","1gDkJcCP","Attention (Concentration)",75,45,10,45,"Yes to treatment",90,514.940000000934,0.222222222222222,50,55,54,50,54,28,24,27,26,26,"1",26,4,3,6,6,2,4,3,3,4,1,"40000","COMPUTER SEICENCE","16","self-employed",2,0,1,"13",-2.4,-14.6,0.193399635606786,3.50266007468042,0.00962840064996933,-0.0552150741103337
"239","1gDkJcCP","Attention (Concentration)",75,35,35,30,"Yes to treatment",77,539.654999996827,1,50,55,54,50,54,28,24,27,26,26,"1",26,4,3,6,6,2,4,3,3,4,1,"40000","COMPUTER SEICENCE","16","self-employed",2,0,1,"14",-12.4,10.4,0.193399635606786,3.50266007468042,0.00962840064996933,-0.0552150741103337
"240","1gDkJcCP","Attention (Concentration)",75,65,25,10,"Yes to treatment",77,532.400000000081,0.384615384615385,50,55,54,50,54,28,24,27,26,26,"1",26,4,3,6,6,2,4,3,3,4,1,"40000","COMPUTER SEICENCE","16","self-employed",2,0,1,"15",17.6,0.399999999999999,0.193399635606786,3.50266007468042,0.00962840064996933,-0.0552150741103337
"241","1gDkJcCP","Attention (Concentration)",75,90,5,5,"Yes to treatment",90,571.714999998221,0.0555555555555556,50,55,54,50,54,28,24,27,26,26,"1",26,4,3,6,6,2,4,3,3,4,1,"40000","COMPUTER SEICENCE","16","self-employed",2,0,1,"16",42.6,-19.6,0.193399635606786,3.50266007468042,0.00962840064996933,-0.0552150741103337
"242","1gDkJcCP","Attention (Concentration)",75,70,10,20,"Yes to treatment",77,2399.61499999842,0.142857142857143,50,55,54,50,54,28,24,27,26,26,"1",26,4,3,6,6,2,4,3,3,4,1,"40000","COMPUTER SEICENCE","16","self-employed",2,0,1,"17",22.6,-14.6,0.193399635606786,3.50266007468042,0.00962840064996933,-0.0552150741103337
"243","1gDkJcCP","Attention (Concentration)",75,20,60,20,"Yes to treatment",90,900.635000001756,3,50,55,54,50,54,28,24,27,26,26,"1",26,4,3,6,6,2,4,3,3,4,1,"40000","COMPUTER SEICENCE","16","self-employed",2,0,1,"18",-27.4,35.4,0.193399635606786,3.50266007468042,0.00962840064996933,-0.0552150741103337
"244","1gDkJcCP","Attention (Concentration)",75,65,15,20,"Yes to treatment",77,844.430000001041,0.230769230769231,50,55,54,50,54,28,24,27,26,26,"1",26,4,3,6,6,2,4,3,3,4,1,"40000","COMPUTER SEICENCE","16","self-employed",2,0,1,"19",17.6,-9.6,0.193399635606786,3.50266007468042,0.00962840064996933,-0.0552150741103337
"245","1gDkJcCP","Attention (Concentration)",75,55,15,30,"Yes to treatment",90,671.814999997907,0.272727272727273,50,55,54,50,54,28,24,27,26,26,"1",26,4,3,6,6,2,4,3,3,4,1,"40000","COMPUTER SEICENCE","16","self-employed",2,0,1,"20",7.6,-9.6,0.193399635606786,3.50266007468042,0.00962840064996933,-0.0552150741103337
"246","1gDkJcCP","Attention (Concentration)",75,30,35,35,"Yes to treatment",90,567.474999999802,1.16666666666667,50,55,54,50,54,28,24,27,26,26,"1",26,4,3,6,6,2,4,3,3,4,1,"40000","COMPUTER SEICENCE","16","self-employed",2,0,1,"21",-17.4,10.4,0.193399635606786,3.50266007468042,0.00962840064996933,-0.0552150741103337
"247","1gDkJcCP","Attention (Concentration)",75,5,70,25,"Yes to treatment",90,892.889999999199,14,50,55,54,50,54,28,24,27,26,26,"1",26,4,3,6,6,2,4,3,3,4,1,"40000","COMPUTER SEICENCE","16","self-employed",2,0,1,"22",-42.4,45.4,0.193399635606786,3.50266007468042,0.00962840064996933,-0.0552150741103337
"248","1gDkJcCP","Attention (Concentration)",75,20,40,40,"Yes to treatment",90,740.215000001597,2,50,55,54,50,54,28,24,27,26,26,"1",26,4,3,6,6,2,4,3,3,4,1,"40000","COMPUTER SEICENCE","16","self-employed",2,0,1,"23",-27.4,15.4,0.193399635606786,3.50266007468042,0.00962840064996933,-0.0552150741103337
"249","1gDkJcCP","Attention (Concentration)",75,35,5,60,"Yes to treatment",90,644.335000000894,0.142857142857143,50,55,54,50,54,28,24,27,26,26,"1",26,4,3,6,6,2,4,3,3,4,1,"40000","COMPUTER SEICENCE","16","self-employed",2,0,1,"24",-12.4,-19.6,0.193399635606786,3.50266007468042,0.00962840064996933,-0.0552150741103337
"250","1gDkJcCP","Attention (Concentration)",75,35,15,50,"Yes to treatment",90,924.144999997225,0.428571428571429,50,55,54,50,54,28,24,27,26,26,"1",26,4,3,6,6,2,4,3,3,4,1,"40000","COMPUTER SEICENCE","16","self-employed",2,0,1,"25",-12.4,-9.6,0.193399635606786,3.50266007468042,0.00962840064996933,-0.0552150741103337
"251","1gDkJcCP","Attention (Concentration)",75,70,10,20,"Yes to treatment",90,580.740000001213,0.142857142857143,50,55,54,50,54,28,24,27,26,26,"1",26,4,3,6,6,2,4,3,3,4,1,"40000","COMPUTER SEICENCE","16","self-employed",2,0,1,"26",22.6,-14.6,0.193399635606786,3.50266007468042,0.00962840064996933,-0.0552150741103337
"252","1gDkJcCP","Attention (Concentration)",75,75,5,20,"Yes to treatment",77,555.290000000212,0.0666666666666667,50,55,54,50,54,28,24,27,26,26,"1",26,4,3,6,6,2,4,3,3,4,1,"40000","COMPUTER SEICENCE","16","self-employed",2,0,1,"27",27.6,-19.6,0.193399635606786,3.50266007468042,0.00962840064996933,-0.0552150741103337
"253","1gDkJcCP","Attention (Concentration)",75,30,25,45,"Yes to treatment",77,674.745000000286,0.833333333333333,50,55,54,50,54,28,24,27,26,26,"1",26,4,3,6,6,2,4,3,3,4,1,"40000","COMPUTER SEICENCE","16","self-employed",2,0,1,"28",-17.4,0.399999999999999,0.193399635606786,3.50266007468042,0.00962840064996933,-0.0552150741103337
"254","1gDkJcCP","Attention (Concentration)",75,70,5,25,"Yes to treatment",90,602.940000000643,0.0714285714285714,50,55,54,50,54,28,24,27,26,26,"1",26,4,3,6,6,2,4,3,3,4,1,"40000","COMPUTER SEICENCE","16","self-employed",2,0,1,"29",22.6,-19.6,0.193399635606786,3.50266007468042,0.00962840064996933,-0.0552150741103337
"255","1gDkJcCP","Attention (Concentration)",75,60,20,20,"Yes to treatment",77,599.965000001248,0.333333333333333,50,55,54,50,54,28,24,27,26,26,"1",26,4,3,6,6,2,4,3,3,4,1,"40000","COMPUTER SEICENCE","16","self-employed",2,0,1,"30",12.6,-4.6,0.193399635606786,3.50266007468042,0.00962840064996933,-0.0552150741103337
"256","1gDkJcCP","Attention (Concentration)",75,55,40,5,"Yes to treatment",77,620.289999998931,0.727272727272727,50,55,54,50,54,28,24,27,26,26,"1",26,4,3,6,6,2,4,3,3,4,1,"40000","COMPUTER SEICENCE","16","self-employed",2,0,1,"31",7.6,15.4,0.193399635606786,3.50266007468042,0.00962840064996933,-0.0552150741103337
"257","1gDkJcCP","Attention (Concentration)",75,90,5,5,"Yes to treatment",77,556.264999999257,0.0555555555555556,50,55,54,50,54,28,24,27,26,26,"1",26,4,3,6,6,2,4,3,3,4,1,"40000","COMPUTER SEICENCE","16","self-employed",2,0,1,"32",42.6,-19.6,0.193399635606786,3.50266007468042,0.00962840064996933,-0.0552150741103337
"258","1gDkJcCP","Attention (Concentration)",75,25,25,50,"Yes to treatment",90,677.145000001474,1,50,55,54,50,54,28,24,27,26,26,"1",26,4,3,6,6,2,4,3,3,4,1,"40000","COMPUTER SEICENCE","16","self-employed",2,0,1,"33",-22.4,0.399999999999999,0.193399635606786,3.50266007468042,0.00962840064996933,-0.0552150741103337
"259","1gDkJcCP","Attention (Concentration)",75,50,20,30,"Yes to treatment",77,699.195000001055,0.4,50,55,54,50,54,28,24,27,26,26,"1",26,4,3,6,6,2,4,3,3,4,1,"40000","COMPUTER SEICENCE","16","self-employed",2,0,1,"34",2.6,-4.6,0.193399635606786,3.50266007468042,0.00962840064996933,-0.0552150741103337
"260","1gDkJcCP","Attention (Concentration)",75,15,50,35,"Yes to treatment",77,806.785000000673,3.33333333333333,50,55,54,50,54,28,24,27,26,26,"1",26,4,3,6,6,2,4,3,3,4,1,"40000","COMPUTER SEICENCE","16","self-employed",2,0,1,"35",-32.4,25.4,0.193399635606786,3.50266007468042,0.00962840064996933,-0.0552150741103337
"261","1gDkJcCP","Attention (Concentration)",75,65,25,10,"Yes to treatment",77,539.404999999562,0.384615384615385,50,55,54,50,54,28,24,27,26,26,"1",26,4,3,6,6,2,4,3,3,4,1,"40000","COMPUTER SEICENCE","16","self-employed",2,0,1,"36",17.6,0.399999999999999,0.193399635606786,3.50266007468042,0.00962840064996933,-0.0552150741103337
"262","1gDkJcCP","Attention (Concentration)",75,25,25,50,"Yes to treatment",77,556.470000003173,1,50,55,54,50,54,28,24,27,26,26,"1",26,4,3,6,6,2,4,3,3,4,1,"40000","COMPUTER SEICENCE","16","self-employed",2,0,1,"37",-22.4,0.399999999999999,0.193399635606786,3.50266007468042,0.00962840064996933,-0.0552150741103337
"263","1gDkJcCP","Attention (Concentration)",75,15,20,65,"Yes to treatment",90,1292.07999999926,1.33333333333333,50,55,54,50,54,28,24,27,26,26,"1",26,4,3,6,6,2,4,3,3,4,1,"40000","COMPUTER SEICENCE","16","self-employed",2,0,1,"38",-32.4,-4.6,0.193399635606786,3.50266007468042,0.00962840064996933,-0.0552150741103337
"264","1gDkJcCP","Attention (Concentration)",75,40,30,30,"Yes to treatment",77,540.854999999283,0.75,50,55,54,50,54,28,24,27,26,26,"1",26,4,3,6,6,2,4,3,3,4,1,"40000","COMPUTER SEICENCE","16","self-employed",2,0,1,"39",-7.4,5.4,0.193399635606786,3.50266007468042,0.00962840064996933,-0.0552150741103337
"265","1gDkJcCP","Attention (Concentration)",75,85,10,5,"Yes to treatment",77,513.245000001916,0.117647058823529,50,55,54,50,54,28,24,27,26,26,"1",26,4,3,6,6,2,4,3,3,4,1,"40000","COMPUTER SEICENCE","16","self-employed",2,0,1,"40",37.6,-14.6,0.193399635606786,3.50266007468042,0.00962840064996933,-0.0552150741103337
"266","1gDkJcCP","Attention (Concentration)",75,80,5,15,"Yes to treatment",77,686.439999997674,0.0625,50,55,54,50,54,28,24,27,26,26,"1",26,4,3,6,6,2,4,3,3,4,1,"40000","COMPUTER SEICENCE","16","self-employed",2,0,1,"41",32.6,-19.6,0.193399635606786,3.50266007468042,0.00962840064996933,-0.0552150741103337
"267","1gDkJcCP","Attention (Concentration)",75,50,15,35,"Yes to treatment",77,641.670000000857,0.3,50,55,54,50,54,28,24,27,26,26,"1",26,4,3,6,6,2,4,3,3,4,1,"40000","COMPUTER SEICENCE","16","self-employed",2,0,1,"42",2.6,-9.6,0.193399635606786,3.50266007468042,0.00962840064996933,-0.0552150741103337
"268","1gDkJcCP","Attention (Concentration)",75,65,5,30,"No to treatment",90,2493.9349999986,0.0769230769230769,50,55,54,50,54,28,24,27,26,26,"1",26,4,3,6,6,2,4,3,3,4,1,"40000","COMPUTER SEICENCE","16","self-employed",2,0,1,"43",17.6,-19.6,0.193399635606786,3.50266007468042,0.00962840064996933,-0.0552150741103337
"269","1gDkJcCP","Attention (Concentration)",75,40,30,30,"Yes to treatment",90,547.669999999925,0.75,50,55,54,50,54,28,24,27,26,26,"1",26,4,3,6,6,2,4,3,3,4,1,"40000","COMPUTER SEICENCE","16","self-employed",2,0,1,"44",-7.4,5.4,0.193399635606786,3.50266007468042,0.00962840064996933,-0.0552150741103337
"270","1gDkJcCP","Attention (Concentration)",75,80,15,5,"Yes to treatment",77,715.804999999818,0.1875,50,55,54,50,54,28,24,27,26,26,"1",26,4,3,6,6,2,4,3,3,4,1,"40000","COMPUTER SEICENCE","16","self-employed",2,0,1,"45",32.6,-9.6,0.193399635606786,3.50266007468042,0.00962840064996933,-0.0552150741103337
"271","1gDkJcCP","Attention (Concentration)",75,65,20,15,"Yes to treatment",77,435.835000000196,0.307692307692308,50,55,54,50,54,28,24,27,26,26,"1",26,4,3,6,6,2,4,3,3,4,1,"40000","COMPUTER SEICENCE","16","self-employed",2,0,1,"46",17.6,-4.6,0.193399635606786,3.50266007468042,0.00962840064996933,-0.0552150741103337
"272","1gDkJcCP","Attention (Concentration)",75,5,60,35,"Yes to treatment",90,675.905000000028,12,50,55,54,50,54,28,24,27,26,26,"1",26,4,3,6,6,2,4,3,3,4,1,"40000","COMPUTER SEICENCE","16","self-employed",2,0,1,"47",-42.4,35.4,0.193399635606786,3.50266007468042,0.00962840064996933,-0.0552150741103337
"273","1gDkJcCP","Attention (Concentration)",75,10,65,25,"Yes to treatment",77,532.065000003087,6.5,50,55,54,50,54,28,24,27,26,26,"1",26,4,3,6,6,2,4,3,3,4,1,"40000","COMPUTER SEICENCE","16","self-employed",2,0,1,"48",-37.4,40.4,0.193399635606786,3.50266007468042,0.00962840064996933,-0.0552150741103337
"274","1gDkJcCP","Attention (Concentration)",75,90,5,5,"Yes to treatment",90,683.995000003022,0.0555555555555556,50,55,54,50,54,28,24,27,26,26,"1",26,4,3,6,6,2,4,3,3,4,1,"40000","COMPUTER SEICENCE","16","self-employed",2,0,1,"49",42.6,-19.6,0.193399635606786,3.50266007468042,0.00962840064996933,-0.0552150741103337
"275","1gDkJcCP","Attention (Concentration)",75,60,25,15,"Yes to treatment",90,484.199999998964,0.416666666666667,50,55,54,50,54,28,24,27,26,26,"1",26,4,3,6,6,2,4,3,3,4,1,"40000","COMPUTER SEICENCE","16","self-employed",2,0,1,"50",12.6,0.399999999999999,0.193399635606786,3.50266007468042,0.00962840064996933,-0.0552150741103337
"276","1gDkJcCP","Attention (Concentration)",75,35,45,20,"Yes to treatment",90,443.354999999458,1.28571428571429,50,55,54,50,54,28,24,27,26,26,"1",26,4,3,6,6,2,4,3,3,4,1,"40000","COMPUTER SEICENCE","16","self-employed",2,0,1,"51",-12.4,20.4,0.193399635606786,3.50266007468042,0.00962840064996933,-0.0552150741103337
"277","1gDkJcCP","Attention (Concentration)",75,60,20,20,"Yes to treatment",77,850.839999999152,0.333333333333333,50,55,54,50,54,28,24,27,26,26,"1",26,4,3,6,6,2,4,3,3,4,1,"40000","COMPUTER SEICENCE","16","self-employed",2,0,1,"52",12.6,-4.6,0.193399635606786,3.50266007468042,0.00962840064996933,-0.0552150741103337
"278","1gDkJcCP","Attention (Concentration)",75,30,20,50,"Yes to treatment",90,579.815000000992,0.666666666666667,50,55,54,50,54,28,24,27,26,26,"1",26,4,3,6,6,2,4,3,3,4,1,"40000","COMPUTER SEICENCE","16","self-employed",2,0,1,"53",-17.4,-4.6,0.193399635606786,3.50266007468042,0.00962840064996933,-0.0552150741103337
"279","1gDkJcCP","Attention (Concentration)",75,85,5,10,"Yes to treatment",90,597.025000002759,0.0588235294117647,50,55,54,50,54,28,24,27,26,26,"1",26,4,3,6,6,2,4,3,3,4,1,"40000","COMPUTER SEICENCE","16","self-employed",2,0,1,"54",37.6,-19.6,0.193399635606786,3.50266007468042,0.00962840064996933,-0.0552150741103337
"280","1gDkJcCP","Attention (Concentration)",75,20,55,25,"Yes to treatment",77,700.549999997718,2.75,50,55,54,50,54,28,24,27,26,26,"1",26,4,3,6,6,2,4,3,3,4,1,"40000","COMPUTER SEICENCE","16","self-employed",2,0,1,"55",-27.4,30.4,0.193399635606786,3.50266007468042,0.00962840064996933,-0.0552150741103337
"281","1gDkJcCP","Attention (Concentration)",75,75,10,15,"Yes to treatment",77,559.199999999721,0.133333333333333,50,55,54,50,54,28,24,27,26,26,"1",26,4,3,6,6,2,4,3,3,4,1,"40000","COMPUTER SEICENCE","16","self-employed",2,0,1,"56",27.6,-14.6,0.193399635606786,3.50266007468042,0.00962840064996933,-0.0552150741103337
"282","1gDkJcCP","Attention (Concentration)",75,25,5,70,"Yes to treatment",77,563.709999998566,0.2,50,55,54,50,54,28,24,27,26,26,"1",26,4,3,6,6,2,4,3,3,4,1,"40000","COMPUTER SEICENCE","16","self-employed",2,0,1,"57",-22.4,-19.6,0.193399635606786,3.50266007468042,0.00962840064996933,-0.0552150741103337
"283","1gDkJcCP","Attention (Concentration)",75,55,25,20,"Yes to treatment",77,579.494999998133,0.454545454545455,50,55,54,50,54,28,24,27,26,26,"1",26,4,3,6,6,2,4,3,3,4,1,"40000","COMPUTER SEICENCE","16","self-employed",2,0,1,"58",7.6,0.399999999999999,0.193399635606786,3.50266007468042,0.00962840064996933,-0.0552150741103337
"284","1gDkJcCP","Attention (Concentration)",75,10,10,80,"Yes to treatment",90,517.72500000149,1,50,55,54,50,54,28,24,27,26,26,"1",26,4,3,6,6,2,4,3,3,4,1,"40000","COMPUTER SEICENCE","16","self-employed",2,0,1,"59",-37.4,-14.6,0.193399635606786,3.50266007468042,0.00962840064996933,-0.0552150741103337
"285","1gDkJcCP","Attention (Concentration)",75,5,20,75,"Yes to treatment",90,1386.12499999726,4,50,55,54,50,54,28,24,27,26,26,"1",26,4,3,6,6,2,4,3,3,4,1,"40000","COMPUTER SEICENCE","16","self-employed",2,0,1,"60",-42.4,-4.6,0.193399635606786,3.50266007468042,0.00962840064996933,-0.0552150741103337
"286","1gDkJcCP","Attention (Concentration)",75,85,5,10,"Yes to treatment",77,563.024999999499,0.0588235294117647,50,55,54,50,54,28,24,27,26,26,"1",26,4,3,6,6,2,4,3,3,4,1,"40000","COMPUTER SEICENCE","16","self-employed",2,0,1,"61",37.6,-19.6,0.193399635606786,3.50266007468042,0.00962840064996933,-0.0552150741103337
"287","1gDkJcCP","Attention (Concentration)",75,35,50,15,"Yes to treatment",90,531.644999999087,1.42857142857143,50,55,54,50,54,28,24,27,26,26,"1",26,4,3,6,6,2,4,3,3,4,1,"40000","COMPUTER SEICENCE","16","self-employed",2,0,1,"62",-12.4,25.4,0.193399635606786,3.50266007468042,0.00962840064996933,-0.0552150741103337
"288","1gDkJcCP","Attention (Concentration)",75,20,25,55,"Yes to treatment",90,628.414999999222,1.25,50,55,54,50,54,28,24,27,26,26,"1",26,4,3,6,6,2,4,3,3,4,1,"40000","COMPUTER SEICENCE","16","self-employed",2,0,1,"63",-27.4,0.399999999999999,0.193399635606786,3.50266007468042,0.00962840064996933,-0.0552150741103337
"289","1gDkJcCP","Attention (Concentration)",75,90,5,5,"Yes to treatment",77,586.115000001912,0.0555555555555556,50,55,54,50,54,28,24,27,26,26,"1",26,4,3,6,6,2,4,3,3,4,1,"40000","COMPUTER SEICENCE","16","self-employed",2,0,1,"64",42.6,-19.6,0.193399635606786,3.50266007468042,0.00962840064996933,-0.0552150741103337
"290","1gDkJcCP","Attention (Concentration)",75,75,5,20,"Yes to treatment",90,595.020000000659,0.0666666666666667,50,55,54,50,54,28,24,27,26,26,"1",26,4,3,6,6,2,4,3,3,4,1,"40000","COMPUTER SEICENCE","16","self-employed",2,0,1,"65",27.6,-19.6,0.193399635606786,3.50266007468042,0.00962840064996933,-0.0552150741103337
"291","1gDkJcCP","Attention (Concentration)",75,80,5,15,"Yes to treatment",77,548.70999999909,0.0625,50,55,54,50,54,28,24,27,26,26,"1",26,4,3,6,6,2,4,3,3,4,1,"40000","COMPUTER SEICENCE","16","self-employed",2,0,1,"66",32.6,-19.6,0.193399635606786,3.50266007468042,0.00962840064996933,-0.0552150741103337
"292","1gDkJcCP","Attention (Concentration)",75,45,45,10,"Yes to treatment",77,913.304999998247,1,50,55,54,50,54,28,24,27,26,26,"1",26,4,3,6,6,2,4,3,3,4,1,"40000","COMPUTER SEICENCE","16","self-employed",2,0,1,"67",-2.4,20.4,0.193399635606786,3.50266007468042,0.00962840064996933,-0.0552150741103337
"293","1gDkJcCP","Attention (Concentration)",75,5,5,90,"Yes to treatment",90,565.910000001139,1,50,55,54,50,54,28,24,27,26,26,"1",26,4,3,6,6,2,4,3,3,4,1,"40000","COMPUTER SEICENCE","16","self-employed",2,0,1,"68",-42.4,-19.6,0.193399635606786,3.50266007468042,0.00962840064996933,-0.0552150741103337
"294","1gDkJcCP","Attention (Concentration)",75,5,35,60,"Yes to treatment",90,668.645000001532,7,50,55,54,50,54,28,24,27,26,26,"1",26,4,3,6,6,2,4,3,3,4,1,"40000","COMPUTER SEICENCE","16","self-employed",2,0,1,"69",-42.4,10.4,0.193399635606786,3.50266007468042,0.00962840064996933,-0.0552150741103337
"295","1gDkJcCP","Attention (Concentration)",75,90,5,5,"Yes to treatment",77,595.309999996971,0.0555555555555556,50,55,54,50,54,28,24,27,26,26,"1",26,4,3,6,6,2,4,3,3,4,1,"40000","COMPUTER SEICENCE","16","self-employed",2,0,1,"70",42.6,-19.6,0.193399635606786,3.50266007468042,0.00962840064996933,-0.0552150741103337
"296","1gDkJcCP","Attention (Concentration)",75,85,10,5,"Yes to treatment",77,582.669999999809,0.117647058823529,50,55,54,50,54,28,24,27,26,26,"1",26,4,3,6,6,2,4,3,3,4,1,"40000","COMPUTER SEICENCE","16","self-employed",2,0,1,"71",37.6,-14.6,0.193399635606786,3.50266007468042,0.00962840064996933,-0.0552150741103337
"297","1gDkJcCP","Attention (Concentration)",75,45,10,45,"Yes to treatment",90,723.839999998745,0.222222222222222,50,55,54,50,54,28,24,27,26,26,"1",26,4,3,6,6,2,4,3,3,4,1,"40000","COMPUTER SEICENCE","16","self-employed",2,0,1,"72",-2.4,-14.6,0.193399635606786,3.50266007468042,0.00962840064996933,-0.0552150741103337
"298","1gDkJcCP","Attention (Concentration)",75,25,65,10,"Yes to treatment",77,555.844999998924,2.6,50,55,54,50,54,28,24,27,26,26,"1",26,4,3,6,6,2,4,3,3,4,1,"40000","COMPUTER SEICENCE","16","self-employed",2,0,1,"73",-22.4,40.4,0.193399635606786,3.50266007468042,0.00962840064996933,-0.0552150741103337
"299","1gDkJcCP","Attention (Concentration)",75,50,40,10,"Yes to treatment",77,677.080000001297,0.8,50,55,54,50,54,28,24,27,26,26,"1",26,4,3,6,6,2,4,3,3,4,1,"40000","COMPUTER SEICENCE","16","self-employed",2,0,1,"74",2.6,15.4,0.193399635606786,3.50266007468042,0.00962840064996933,-0.0552150741103337
"300","1gDkJcCP","Attention (Concentration)",75,55,40,5,"Yes to treatment",90,580.089999999444,0.727272727272727,50,55,54,50,54,28,24,27,26,26,"1",26,4,3,6,6,2,4,3,3,4,1,"40000","COMPUTER SEICENCE","16","self-employed",2,0,1,"75",7.6,15.4,0.193399635606786,3.50266007468042,0.00962840064996933,-0.0552150741103337
"301","2OsQQK3Z","Short Term (Working) Memory",75,75,10,15,"Yes to treatment",77,1860.70499988273,0.133333333333333,36,47,41,37,47,26,28,8,12,6,"2",45,2,2,1,11,1,1,1,1,1,1,"27000","accounting","14","not working",1,0,0,"1",26.0666666666667,-14.2,0.0272875060214959,0.193882274809229,0.00394106320647859,-0.140742654522418
"302","2OsQQK3Z","Short Term (Working) Memory",75,70,25,5,"No to treatment",77,1948.72500002384,0.357142857142857,36,47,41,37,47,26,28,8,12,6,"2",45,2,2,1,11,1,1,1,1,1,1,"27000","accounting","14","not working",1,0,0,"2",21.0666666666667,0.800000000000001,0.0272875060214959,0.193882274809229,0.00394106320647859,-0.140742654522418
"303","2OsQQK3Z","Short Term (Working) Memory",75,80,10,10,"No to treatment",77,1548.75500011258,0.125,36,47,41,37,47,26,28,8,12,6,"2",45,2,2,1,11,1,1,1,1,1,1,"27000","accounting","14","not working",1,0,0,"3",31.0666666666667,-14.2,0.0272875060214959,0.193882274809229,0.00394106320647859,-0.140742654522418
"304","2OsQQK3Z","Short Term (Working) Memory",75,50,15,35,"No to treatment",90,4795.71500001475,0.3,36,47,41,37,47,26,28,8,12,6,"2",45,2,2,1,11,1,1,1,1,1,1,"27000","accounting","14","not working",1,0,0,"4",1.06666666666667,-9.2,0.0272875060214959,0.193882274809229,0.00394106320647859,-0.140742654522418
"305","2OsQQK3Z","Short Term (Working) Memory",75,15,15,70,"No to treatment",90,2012.50000018626,1,36,47,41,37,47,26,28,8,12,6,"2",45,2,2,1,11,1,1,1,1,1,1,"27000","accounting","14","not working",1,0,0,"5",-33.9333333333333,-9.2,0.0272875060214959,0.193882274809229,0.00394106320647859,-0.140742654522418
"306","2OsQQK3Z","Short Term (Working) Memory",75,75,10,15,"Yes to treatment",77,4148.44999997877,0.133333333333333,36,47,41,37,47,26,28,8,12,6,"2",45,2,2,1,11,1,1,1,1,1,1,"27000","accounting","14","not working",1,0,0,"6",26.0666666666667,-14.2,0.0272875060214959,0.193882274809229,0.00394106320647859,-0.140742654522418
"307","2OsQQK3Z","Short Term (Working) Memory",75,20,50,30,"Yes to treatment",77,1042.42499987595,2.5,36,47,41,37,47,26,28,8,12,6,"2",45,2,2,1,11,1,1,1,1,1,1,"27000","accounting","14","not working",1,0,0,"7",-28.9333333333333,25.8,0.0272875060214959,0.193882274809229,0.00394106320647859,-0.140742654522418
"308","2OsQQK3Z","Short Term (Working) Memory",75,65,5,30,"No to treatment",77,635.615000035614,0.0769230769230769,36,47,41,37,47,26,28,8,12,6,"2",45,2,2,1,11,1,1,1,1,1,1,"27000","accounting","14","not working",1,0,0,"8",16.0666666666667,-19.2,0.0272875060214959,0.193882274809229,0.00394106320647859,-0.140742654522418
"309","2OsQQK3Z","Short Term (Working) Memory",75,70,10,20,"No to treatment",77,4980.16000003554,0.142857142857143,36,47,41,37,47,26,28,8,12,6,"2",45,2,2,1,11,1,1,1,1,1,1,"27000","accounting","14","not working",1,0,0,"9",21.0666666666667,-14.2,0.0272875060214959,0.193882274809229,0.00394106320647859,-0.140742654522418
"310","2OsQQK3Z","Short Term (Working) Memory",75,65,15,20,"No to treatment",90,963.725000154227,0.230769230769231,36,47,41,37,47,26,28,8,12,6,"2",45,2,2,1,11,1,1,1,1,1,1,"27000","accounting","14","not working",1,0,0,"10",16.0666666666667,-9.2,0.0272875060214959,0.193882274809229,0.00394106320647859,-0.140742654522418
"311","2OsQQK3Z","Short Term (Working) Memory",75,65,5,30,"No to treatment",77,1780.55000002496,0.0769230769230769,36,47,41,37,47,26,28,8,12,6,"2",45,2,2,1,11,1,1,1,1,1,1,"27000","accounting","14","not working",1,0,0,"11",16.0666666666667,-19.2,0.0272875060214959,0.193882274809229,0.00394106320647859,-0.140742654522418
"312","2OsQQK3Z","Short Term (Working) Memory",75,55,35,10,"Yes to treatment",77,2612.65500006266,0.636363636363636,36,47,41,37,47,26,28,8,12,6,"2",45,2,2,1,11,1,1,1,1,1,1,"27000","accounting","14","not working",1,0,0,"12",6.06666666666667,10.8,0.0272875060214959,0.193882274809229,0.00394106320647859,-0.140742654522418
"313","2OsQQK3Z","Short Term (Working) Memory",75,90,5,5,"No to treatment",90,708.129999926314,0.0555555555555556,36,47,41,37,47,26,28,8,12,6,"2",45,2,2,1,11,1,1,1,1,1,1,"27000","accounting","14","not working",1,0,0,"13",41.0666666666667,-19.2,0.0272875060214959,0.193882274809229,0.00394106320647859,-0.140742654522418
"314","2OsQQK3Z","Short Term (Working) Memory",75,40,25,35,"No to treatment",77,1188.00999992527,0.625,36,47,41,37,47,26,28,8,12,6,"2",45,2,2,1,11,1,1,1,1,1,1,"27000","accounting","14","not working",1,0,0,"14",-8.93333333333333,0.800000000000001,0.0272875060214959,0.193882274809229,0.00394106320647859,-0.140742654522418
"315","2OsQQK3Z","Short Term (Working) Memory",75,90,5,5,"No to treatment",90,596.424999879673,0.0555555555555556,36,47,41,37,47,26,28,8,12,6,"2",45,2,2,1,11,1,1,1,1,1,1,"27000","accounting","14","not working",1,0,0,"15",41.0666666666667,-19.2,0.0272875060214959,0.193882274809229,0.00394106320647859,-0.140742654522418
"316","2OsQQK3Z","Short Term (Working) Memory",75,55,35,10,"Yes to treatment",77,813.044999958947,0.636363636363636,36,47,41,37,47,26,28,8,12,6,"2",45,2,2,1,11,1,1,1,1,1,1,"27000","accounting","14","not working",1,0,0,"16",6.06666666666667,10.8,0.0272875060214959,0.193882274809229,0.00394106320647859,-0.140742654522418
"317","2OsQQK3Z","Short Term (Working) Memory",75,25,10,65,"No to treatment",90,3955.83999995142,0.4,36,47,41,37,47,26,28,8,12,6,"2",45,2,2,1,11,1,1,1,1,1,1,"27000","accounting","14","not working",1,0,0,"17",-23.9333333333333,-14.2,0.0272875060214959,0.193882274809229,0.00394106320647859,-0.140742654522418
"318","2OsQQK3Z","Short Term (Working) Memory",75,40,30,30,"Yes to treatment",77,1484.58000016399,0.75,36,47,41,37,47,26,28,8,12,6,"2",45,2,2,1,11,1,1,1,1,1,1,"27000","accounting","14","not working",1,0,0,"18",-8.93333333333333,5.8,0.0272875060214959,0.193882274809229,0.00394106320647859,-0.140742654522418
"319","2OsQQK3Z","Short Term (Working) Memory",75,60,5,35,"No to treatment",90,835.515000158921,0.0833333333333333,36,47,41,37,47,26,28,8,12,6,"2",45,2,2,1,11,1,1,1,1,1,1,"27000","accounting","14","not working",1,0,0,"19",11.0666666666667,-19.2,0.0272875060214959,0.193882274809229,0.00394106320647859,-0.140742654522418
"320","2OsQQK3Z","Short Term (Working) Memory",75,45,35,20,"Yes to treatment",77,1251.43499998376,0.777777777777778,36,47,41,37,47,26,28,8,12,6,"2",45,2,2,1,11,1,1,1,1,1,1,"27000","accounting","14","not working",1,0,0,"20",-3.93333333333333,10.8,0.0272875060214959,0.193882274809229,0.00394106320647859,-0.140742654522418
"321","2OsQQK3Z","Short Term (Working) Memory",75,25,55,20,"Yes to treatment",90,1220.52500001155,2.2,36,47,41,37,47,26,28,8,12,6,"2",45,2,2,1,11,1,1,1,1,1,1,"27000","accounting","14","not working",1,0,0,"21",-23.9333333333333,30.8,0.0272875060214959,0.193882274809229,0.00394106320647859,-0.140742654522418
"322","2OsQQK3Z","Short Term (Working) Memory",75,85,5,10,"No to treatment",77,684.549999888986,0.0588235294117647,36,47,41,37,47,26,28,8,12,6,"2",45,2,2,1,11,1,1,1,1,1,1,"27000","accounting","14","not working",1,0,0,"22",36.0666666666667,-19.2,0.0272875060214959,0.193882274809229,0.00394106320647859,-0.140742654522418
"323","2OsQQK3Z","Short Term (Working) Memory",75,50,30,20,"Yes to treatment",90,2939.54499997199,0.6,36,47,41,37,47,26,28,8,12,6,"2",45,2,2,1,11,1,1,1,1,1,1,"27000","accounting","14","not working",1,0,0,"23",1.06666666666667,5.8,0.0272875060214959,0.193882274809229,0.00394106320647859,-0.140742654522418
"324","2OsQQK3Z","Short Term (Working) Memory",75,50,35,15,"Yes to treatment",77,2428.96499997005,0.7,36,47,41,37,47,26,28,8,12,6,"2",45,2,2,1,11,1,1,1,1,1,1,"27000","accounting","14","not working",1,0,0,"24",1.06666666666667,10.8,0.0272875060214959,0.193882274809229,0.00394106320647859,-0.140742654522418
"325","2OsQQK3Z","Short Term (Working) Memory",75,85,5,10,"No to treatment",90,820.104999933392,0.0588235294117647,36,47,41,37,47,26,28,8,12,6,"2",45,2,2,1,11,1,1,1,1,1,1,"27000","accounting","14","not working",1,0,0,"25",36.0666666666667,-19.2,0.0272875060214959,0.193882274809229,0.00394106320647859,-0.140742654522418
